"subject_id","rt","key_press","ListLength","Trial_index","Phase","correct","Block","word1","word2","Context","Context_position","ContextSize","assignmentID","date","time_elapsed","internal_node_id","response","cue","target","SequenceLength","sequence","letterSeen","queriedPosition","correct_01","Gender","Age","Cheated_pairs","Cheated_letters","validity","Error_type"
"02kgvknsak4v935",5.2975,32,15,1,"CuePresentation","TRUE",1,NA,NA,"./images/lake.png","upper-left","13","65f2ba819e9cf67ac1ae99b1","16_3_2024_9_56_5",411855,"0.0-209.0","juicer","beet","juicer",NA,NA,NA,5,1,"female",45,FALSE,FALSE,TRUE,"Correct"
"02kgvknsak4v935",1.08990000009537,32,15,2,"CuePresentation","TRUE",1,NA,NA,"./images/lake.png","upper-left","13","65f2ba819e9cf67ac1ae99b1","16_3_2024_9_56_5",418446,"0.0-213.0","tomato","taco","tomato",NA,NA,NA,2,1,"female",45,FALSE,FALSE,TRUE,"Correct"
"02kgvknsak4v935",1.43459999990463,32,15,3,"CuePresentation","TRUE",1,NA,NA,"./images/lake.png","upper-left","13","65f2ba819e9cf67ac1ae99b1","16_3_2024_9_56_5",423895,"0.0-217.0","vise","tackle","vise",NA,NA,NA,9,1,"female",45,FALSE,FALSE,TRUE,"Correct"
"02kgvknsak4v935",0.9055,32,15,4,"CuePresentation","TRUE",1,NA,NA,"./images/lake.png","upper-left","13","65f2ba819e9cf67ac1ae99b1","16_3_2024_9_56_5",428454,"0.0-221.0","riser","rose","riser",NA,NA,NA,13,1,"female",45,FALSE,FALSE,TRUE,"Correct"
"02kgvknsak4v935",1.13029999995232,32,15,5,"CuePresentation","TRUE",1,NA,NA,"./images/lake.png","upper-left","13","65f2ba819e9cf67ac1ae99b1","16_3_2024_9_56_5",433166,"0.0-225.0","peach","petal","peach",NA,NA,NA,8,1,"female",45,FALSE,FALSE,TRUE,"Correct"
"02kgvknsak4v935",0.545799999952316,32,15,6,"CuePresentation","TRUE",1,NA,NA,"./images/lake.png","upper-left","13","65f2ba819e9cf67ac1ae99b1","16_3_2024_9_56_5",437462,"0.0-229.0","weed","cactus","weed",NA,NA,NA,1,1,"female",45,FALSE,FALSE,TRUE,"Correct"
"02kgvknsak4v935",0.546799999952316,32,15,7,"CuePresentation","TRUE",1,NA,NA,"./images/lake.png","upper-left","13","65f2ba819e9cf67ac1ae99b1","16_3_2024_9_56_5",441382,"0.0-233.0","pedal","banjo","pedal",NA,NA,NA,6,1,"female",45,FALSE,FALSE,TRUE,"Correct"
"02kgvknsak4v935",0.953099999904633,32,15,8,"CuePresentation","TRUE",1,NA,NA,"./images/lake.png","upper-left","13","65f2ba819e9cf67ac1ae99b1","16_3_2024_9_56_5",446750,"0.0-237.0","lock","gate","lock",NA,NA,NA,14,1,"female",45,FALSE,FALSE,TRUE,"Correct"
"02kgvknsak4v935",0.707299999952316,32,15,9,"CuePresentation","TRUE",1,NA,NA,"./images/lake.png","upper-left","13","65f2ba819e9cf67ac1ae99b1","16_3_2024_9_56_5",450709,"0.0-241.0","dryer","cooler","dryer",NA,NA,NA,11,1,"female",45,FALSE,FALSE,TRUE,"Correct"
"02kgvknsak4v935",2.08160000014305,32,15,10,"CuePresentation","TRUE",1,NA,NA,"./images/lake.png","upper-left","13","65f2ba819e9cf67ac1ae99b1","16_3_2024_9_56_5",456502,"0.0-245.0","pliers","plant","pliers",NA,NA,NA,7,1,"female",45,FALSE,FALSE,TRUE,"Correct"
"02kgvknsak4v935",1.56929999995232,32,15,11,"CuePresentation","TRUE",1,NA,NA,"./images/lake.png","upper-left","13","65f2ba819e9cf67ac1ae99b1","16_3_2024_9_56_5",461453,"0.0-249.0","hummus","chips","hummus",NA,NA,NA,15,1,"female",45,FALSE,FALSE,TRUE,"Correct"
"02kgvknsak4v935",0.905600000143051,32,15,12,"CuePresentation","TRUE",1,NA,NA,"./images/sunset.png","lower-left","2","65f2ba819e9cf67ac1ae99b1","16_3_2024_9_56_5",466013,"0.0-253.0","sundae","cookie","sundae",NA,NA,NA,3,1,"female",45,FALSE,FALSE,TRUE,"Correct"
"02kgvknsak4v935",0.962099999904633,32,15,13,"CuePresentation","TRUE",1,NA,NA,"./images/sunset.png","lower-left","2","65f2ba819e9cf67ac1ae99b1","16_3_2024_9_56_5",471101,"0.0-257.0","flask","cigar","flask",NA,NA,NA,12,1,"female",45,FALSE,FALSE,TRUE,"Correct"
"02kgvknsak4v935",1.48289999985695,32,15,14,"CuePresentation","TRUE",1,NA,NA,"./images/lake.png","upper-left","13","65f2ba819e9cf67ac1ae99b1","16_3_2024_9_56_5",476772,"0.0-261.0","cape","bonnet","cape",NA,NA,NA,10,1,"female",45,FALSE,FALSE,TRUE,"Correct"
"02kgvknsak4v935",1.62640000009537,32,15,15,"CuePresentation","TRUE",1,NA,NA,"./images/lake.png","upper-left","13","65f2ba819e9cf67ac1ae99b1","16_3_2024_9_56_5",481773,"0.0-265.0","hose","cable","hose",NA,NA,NA,4,1,"female",45,FALSE,FALSE,TRUE,"Correct"
"02kgvknsak4v935",0.689200000047684,32,15,1,"CuePresentation","TRUE",2,NA,NA,"./images/NoneContext.jpg","center","None","65f2ba819e9cf67ac1ae99b1","16_3_2024_9_56_5",878027,"0.0-477.0","bead","jewel","bead",NA,NA,NA,4,1,"female",45,FALSE,FALSE,TRUE,"Correct"
"02kgvknsak4v935",0.721299999952316,32,15,2,"CuePresentation","TRUE",2,NA,NA,"./images/NoneContext.jpg","center","None","65f2ba819e9cf67ac1ae99b1","16_3_2024_9_56_5",882914,"0.0-481.0","mouth","neck","mouth",NA,NA,NA,3,1,"female",45,FALSE,FALSE,TRUE,"Correct"
"02kgvknsak4v935",0.850399999856949,32,15,3,"CuePresentation","TRUE",2,NA,NA,"./images/NoneContext.jpg","center","None","65f2ba819e9cf67ac1ae99b1","16_3_2024_9_56_5",887267,"0.0-485.0","bread","ginger","bread",NA,NA,NA,2,1,"female",45,FALSE,FALSE,TRUE,"Correct"
"02kgvknsak4v935",0.657299999952316,32,15,4,"CuePresentation","TRUE",2,NA,NA,"./images/NoneContext.jpg","center","None","65f2ba819e9cf67ac1ae99b1","16_3_2024_9_56_5",891491,"0.0-489.0","diaper","toga","diaper",NA,NA,NA,6,1,"female",45,FALSE,FALSE,TRUE,"Correct"
"02kgvknsak4v935",0.939400000095367,32,15,5,"CuePresentation","TRUE",2,NA,NA,"./images/NoneContext.jpg","center","None","65f2ba819e9cf67ac1ae99b1","16_3_2024_9_56_5",896707,"0.0-493.0","broom","stool","broom",NA,NA,NA,13,1,"female",45,FALSE,FALSE,TRUE,"Correct"
"02kgvknsak4v935",2.0895,32,15,6,"CuePresentation","TRUE",2,NA,NA,"./images/NoneContext.jpg","center","None","65f2ba819e9cf67ac1ae99b1","16_3_2024_9_56_5",902306,"0.0-497.0","yacht","rudder","yacht",NA,NA,NA,7,1,"female",45,FALSE,FALSE,TRUE,"Correct"
"02kgvknsak4v935",0.857,32,15,7,"CuePresentation","TRUE",2,NA,NA,"./images/NoneContext.jpg","center","None","65f2ba819e9cf67ac1ae99b1","16_3_2024_9_56_5",906666,"0.0-501.0","sloth","beetle","sloth",NA,NA,NA,5,1,"female",45,FALSE,FALSE,TRUE,"Correct"
"02kgvknsak4v935",1.02879999995232,32,15,8,"CuePresentation","TRUE",2,NA,NA,"./images/NoneContext.jpg","center","None","65f2ba819e9cf67ac1ae99b1","16_3_2024_9_56_5",911357,"0.0-505.0","robot","donkey","robot",NA,NA,NA,11,1,"female",45,FALSE,FALSE,TRUE,"Correct"
"02kgvknsak4v935",1.826,32,15,9,"CuePresentation","TRUE",2,NA,NA,"./images/NoneContext.jpg","center","None","65f2ba819e9cf67ac1ae99b1","16_3_2024_9_56_5",916922,"0.0-509.0","rattle","blower","rattle",NA,NA,NA,8,1,"female",45,FALSE,FALSE,TRUE,"Correct"
"02kgvknsak4v935",0.864899999856949,32,15,10,"CuePresentation","TRUE",2,NA,NA,"./images/NoneContext.jpg","center","None","65f2ba819e9cf67ac1ae99b1","16_3_2024_9_56_5",921610,"0.0-513.0","ship","train","ship",NA,NA,NA,1,1,"female",45,FALSE,FALSE,TRUE,"Correct"
"02kgvknsak4v935",0.6115,32,15,11,"CuePresentation","TRUE",2,NA,NA,"./images/NoneContext.jpg","center","None","65f2ba819e9cf67ac1ae99b1","16_3_2024_9_56_5",925618,"0.0-517.0","flour","soup","flour",NA,NA,NA,10,1,"female",45,FALSE,FALSE,TRUE,"Correct"
"02kgvknsak4v935",1.79379999995232,32,15,12,"CuePresentation","TRUE",2,NA,NA,"./images/NoneContext.jpg","center","None","65f2ba819e9cf67ac1ae99b1","16_3_2024_9_56_5",931386,"0.0-521.0","jetski","rocket","jetski",NA,NA,NA,12,1,"female",45,FALSE,FALSE,TRUE,"Correct"
"02kgvknsak4v935",0.754299999952316,32,15,13,"CuePresentation","TRUE",2,NA,NA,"./images/NoneContext.jpg","center","None","65f2ba819e9cf67ac1ae99b1","16_3_2024_9_56_5",936290,"0.0-525.0","sheet","binder","sheet",NA,NA,NA,15,1,"female",45,FALSE,FALSE,TRUE,"Correct"
"02kgvknsak4v935",1.57020000004768,32,15,14,"CuePresentation","TRUE",2,NA,NA,"./images/NoneContext.jpg","center","None","65f2ba819e9cf67ac1ae99b1","16_3_2024_9_56_5",942138,"0.0-529.0","cream","pecan","cream",NA,NA,NA,9,1,"female",45,FALSE,FALSE,TRUE,"Correct"
"02kgvknsak4v935",2.066,32,15,15,"CuePresentation","TRUE",2,NA,NA,"./images/NoneContext.jpg","center","None","65f2ba819e9cf67ac1ae99b1","16_3_2024_9_56_5",947793,"0.0-533.0","wrap","shawl","wrap",NA,NA,NA,14,1,"female",45,FALSE,FALSE,TRUE,"Correct"
"02kgvknsak4v935",3.10620000004768,32,15,1,"CuePresentation","TRUE",3,NA,NA,"./images/ocean.jpg","middle-top","11","65f2ba819e9cf67ac1ae99b1","16_3_2024_9_56_5",1343080,"0.0-745.0","mail","spam","mail",NA,NA,NA,7,1,"female",45,FALSE,FALSE,TRUE,"Correct"
"02kgvknsak4v935",0.847600000143051,32,15,2,"CuePresentation","TRUE",3,NA,NA,"./images/ocean.jpg","middle-top","11","65f2ba819e9cf67ac1ae99b1","16_3_2024_9_56_5",1347223,"0.0-749.0","seed","grain","seed",NA,NA,NA,13,1,"female",45,FALSE,FALSE,TRUE,"Correct"
"02kgvknsak4v935",3.163,32,15,3,"CuePresentation","TRUE",3,NA,NA,"./images/beach.png","upper-right","4","65f2ba819e9cf67ac1ae99b1","16_3_2024_9_56_5",1353775,"0.0-753.0","heater","drain","heater",NA,NA,NA,14,1,"female",45,FALSE,FALSE,TRUE,"Correct"
"02kgvknsak4v935",1.801,32,15,4,"CuePresentation","TRUE",3,NA,NA,"./images/ocean.jpg","middle-top","11","65f2ba819e9cf67ac1ae99b1","16_3_2024_9_56_5",1358951,"0.0-757.0","knot","scarf","knot",NA,NA,NA,12,1,"female",45,FALSE,FALSE,TRUE,"Correct"
"02kgvknsak4v935",1.48079999995232,32,15,5,"CuePresentation","TRUE",3,NA,NA,"./images/ocean.jpg","middle-top","11","65f2ba819e9cf67ac1ae99b1","16_3_2024_9_56_5",1364358,"0.0-761.0","arrow","thumb","arrow",NA,NA,NA,8,1,"female",45,FALSE,FALSE,TRUE,"Correct"
"02kgvknsak4v935",0.937599999904633,32,15,6,"CuePresentation","TRUE",3,NA,NA,"./images/beach.png","upper-right","4","65f2ba819e9cf67ac1ae99b1","16_3_2024_9_56_5",1368790,"0.0-765.0","bowtie","sequin","bowtie",NA,NA,NA,10,1,"female",45,FALSE,FALSE,TRUE,"Correct"
"02kgvknsak4v935",1.77740000009537,32,15,7,"CuePresentation","TRUE",3,NA,NA,"./images/beach.png","upper-right","4","65f2ba819e9cf67ac1ae99b1","16_3_2024_9_56_5",1374719,"0.0-769.0","timer","siren","timer",NA,NA,NA,3,1,"female",45,FALSE,FALSE,TRUE,"Correct"
"02kgvknsak4v935",1.51279999995232,32,15,8,"CuePresentation","TRUE",3,NA,NA,"./images/ocean.jpg","middle-top","11","65f2ba819e9cf67ac1ae99b1","16_3_2024_9_56_5",1379814,"0.0-773.0","tiger","otter","tiger",NA,NA,NA,1,1,"female",45,FALSE,FALSE,TRUE,"Correct"
"02kgvknsak4v935",0.882299999952316,32,15,9,"CuePresentation","TRUE",3,NA,NA,"./images/ocean.jpg","middle-top","11","65f2ba819e9cf67ac1ae99b1","16_3_2024_9_56_5",1385007,"0.0-777.0","table","tablet","table",NA,NA,NA,2,1,"female",45,FALSE,FALSE,TRUE,"Correct"
"02kgvknsak4v935",2.7705,32,15,10,"CuePresentation","TRUE",3,NA,NA,"./images/ocean.jpg","middle-top","11","65f2ba819e9cf67ac1ae99b1","16_3_2024_9_56_5",1391422,"0.0-781.0","marker","target","marker",NA,NA,NA,5,1,"female",45,FALSE,FALSE,TRUE,"Correct"
"02kgvknsak4v935",1.563,32,15,11,"CuePresentation","TRUE",3,NA,NA,"./images/ocean.jpg","middle-top","11","65f2ba819e9cf67ac1ae99b1","16_3_2024_9_56_5",1397638,"0.0-785.0","hood","trunk","hood",NA,NA,NA,6,1,"female",45,FALSE,FALSE,TRUE,"Correct"
"02kgvknsak4v935",1.09659999990463,32,15,12,"CuePresentation","TRUE",3,NA,NA,"./images/beach.png","upper-right","4","65f2ba819e9cf67ac1ae99b1","16_3_2024_9_56_5",1402054,"0.0-789.0","swing","wing","swing",NA,NA,NA,15,1,"female",45,FALSE,FALSE,TRUE,"Correct"
"02kgvknsak4v935",1.36170000004768,32,15,13,"CuePresentation","TRUE",3,NA,NA,"./images/ocean.jpg","middle-top","11","65f2ba819e9cf67ac1ae99b1","16_3_2024_9_56_5",1406718,"0.0-793.0","bone","tongue","bone",NA,NA,NA,4,1,"female",45,FALSE,FALSE,TRUE,"Correct"
"02kgvknsak4v935",4.763,32,15,14,"CuePresentation","TRUE",3,NA,NA,"./images/ocean.jpg","middle-top","11","65f2ba819e9cf67ac1ae99b1","16_3_2024_9_56_5",1414590,"0.0-797.0","wire","tape","wire",NA,NA,NA,9,1,"female",45,FALSE,FALSE,TRUE,"Correct"
"02kgvknsak4v935",1.2415,32,15,15,"CuePresentation","TRUE",3,NA,NA,"./images/ocean.jpg","middle-top","11","65f2ba819e9cf67ac1ae99b1","16_3_2024_9_56_5",1418742,"0.0-801.0","clam","lizard","clam",NA,NA,NA,11,1,"female",45,FALSE,FALSE,TRUE,"Correct"
"02kgvknsak4v935",3.37789999985695,32,15,1,"CuePresentation","TRUE",4,NA,NA,"./images/park.png","middle-bottom","15","65f2ba819e9cf67ac1ae99b1","16_3_2024_9_56_5",1819092,"0.0-1013.0","stereo","screen","stereo",NA,NA,NA,2,1,"female",45,FALSE,FALSE,TRUE,"Correct"
"02kgvknsak4v935",0.976799999952316,32,15,2,"CuePresentation","TRUE",4,NA,NA,"./images/park.png","middle-bottom","15","65f2ba819e9cf67ac1ae99b1","16_3_2024_9_56_5",1825203,"0.0-1017.0","hammer","wedge","hammer",NA,NA,NA,6,1,"female",45,FALSE,FALSE,TRUE,"Correct"
"02kgvknsak4v935",1.042,32,15,3,"CuePresentation","TRUE",4,NA,NA,"./images/park.png","middle-bottom","15","65f2ba819e9cf67ac1ae99b1","16_3_2024_9_56_5",1829700,"0.0-1021.0","gear","blazer","gear",NA,NA,NA,9,1,"female",45,FALSE,FALSE,TRUE,"Correct"
"02kgvknsak4v935",0.929700000047684,32,15,4,"CuePresentation","TRUE",4,NA,NA,"./images/park.png","middle-bottom","15","65f2ba819e9cf67ac1ae99b1","16_3_2024_9_56_5",1834227,"0.0-1025.0","skirt","wreath","skirt",NA,NA,NA,8,1,"female",45,FALSE,FALSE,TRUE,"Correct"
"02kgvknsak4v935",1.20059999990463,32,15,5,"CuePresentation","TRUE",4,NA,NA,"./images/park.png","middle-bottom","15","65f2ba819e9cf67ac1ae99b1","16_3_2024_9_56_5",1839114,"0.0-1029.0","spider","moth","spider",NA,NA,NA,14,1,"female",45,FALSE,FALSE,TRUE,"Correct"
"02kgvknsak4v935",1.369,32,15,6,"CuePresentation","TRUE",4,NA,NA,"./images/park.png","middle-bottom","15","65f2ba819e9cf67ac1ae99b1","16_3_2024_9_56_5",1843995,"0.0-1033.0","whale","koala","whale",NA,NA,NA,11,1,"female",45,FALSE,FALSE,TRUE,"Correct"
"02kgvknsak4v935",1.05820000004768,32,15,7,"CuePresentation","TRUE",4,NA,NA,"./images/park.png","middle-bottom","15","65f2ba819e9cf67ac1ae99b1","16_3_2024_9_56_5",1848411,"0.0-1037.0","jacket","purse","jacket",NA,NA,NA,1,1,"female",45,FALSE,FALSE,TRUE,"Correct"
"02kgvknsak4v935",5.28170000004768,32,15,8,"CuePresentation","TRUE",4,NA,NA,"./images/park.png","middle-bottom","15","65f2ba819e9cf67ac1ae99b1","16_3_2024_9_56_5",1857396,"0.0-1041.0","film","album","film",NA,NA,NA,7,1,"female",45,FALSE,FALSE,TRUE,"Correct"
"02kgvknsak4v935",1.145,32,15,9,"CuePresentation","TRUE",4,NA,NA,"./images/park.png","middle-bottom","15","65f2ba819e9cf67ac1ae99b1","16_3_2024_9_56_5",1861699,"0.0-1045.0","sand","marble","sand",NA,NA,NA,15,1,"female",45,FALSE,FALSE,TRUE,"Correct"
"02kgvknsak4v935",1.48870000004768,32,15,10,"CuePresentation","TRUE",4,NA,NA,"./images/park.png","middle-bottom","15","65f2ba819e9cf67ac1ae99b1","16_3_2024_9_56_5",1866178,"0.0-1049.0","noodle","puffin","noodle",NA,NA,NA,4,1,"female",45,FALSE,FALSE,TRUE,"Correct"
"02kgvknsak4v935",1.1375,32,15,11,"CuePresentation","TRUE",4,NA,NA,"./images/park.png","middle-bottom","15","65f2ba819e9cf67ac1ae99b1","16_3_2024_9_56_5",1870898,"0.0-1053.0","tulip","bonsai","tulip",NA,NA,NA,12,1,"female",45,FALSE,FALSE,TRUE,"Correct"
"02kgvknsak4v935",2.64879999995232,32,15,12,"CuePresentation","TRUE",4,NA,NA,"./images/park.png","middle-bottom","15","65f2ba819e9cf67ac1ae99b1","16_3_2024_9_56_5",1876938,"0.0-1057.0","canvas","wood","canvas",NA,NA,NA,5,1,"female",45,FALSE,FALSE,TRUE,"Correct"
"02kgvknsak4v935",1.01020000004768,32,15,13,"CuePresentation","TRUE",4,NA,NA,"./images/park.png","middle-bottom","15","65f2ba819e9cf67ac1ae99b1","16_3_2024_9_56_5",1881426,"0.0-1061.0","oven","crumb","oven",NA,NA,NA,3,1,"female",45,FALSE,FALSE,TRUE,"Correct"
"02kgvknsak4v935",0.993799999952316,32,15,14,"CuePresentation","TRUE",4,NA,NA,"./images/park.png","middle-bottom","15","65f2ba819e9cf67ac1ae99b1","16_3_2024_9_56_5",1886162,"0.0-1065.0","coffin","skull","coffin",NA,NA,NA,10,1,"female",45,FALSE,FALSE,TRUE,"Correct"
"02kgvknsak4v935",2.435,32,15,15,"CuePresentation","TRUE",4,NA,NA,"./images/park.png","middle-bottom","15","65f2ba819e9cf67ac1ae99b1","16_3_2024_9_56_5",1892178,"0.0-1069.0","corset","yoke","corset",NA,NA,NA,13,1,"female",45,FALSE,FALSE,TRUE,"Correct"
"02kgvknsak4v935",0.722100000143051,32,15,1,"CuePresentation","TRUE",5,NA,NA,"./images/mountain.png","middle-left","12","65f2ba819e9cf67ac1ae99b1","16_3_2024_9_56_5",2285914,"0.0-1281.0","cork","hookah","cork",NA,NA,NA,1,1,"female",45,FALSE,FALSE,TRUE,"Correct"
"02kgvknsak4v935",0.8565,32,15,2,"CuePresentation","TRUE",5,NA,NA,"./images/winter.png","middle-right","3","65f2ba819e9cf67ac1ae99b1","16_3_2024_9_56_5",2290106,"0.0-1285.0","bullet","sword","bullet",NA,NA,NA,5,1,"female",45,FALSE,FALSE,TRUE,"Correct"
"02kgvknsak4v935",1.28069999980927,32,15,3,"CuePresentation","TRUE",5,NA,NA,"./images/mountain.png","middle-left","12","65f2ba819e9cf67ac1ae99b1","16_3_2024_9_56_5",2295065,"0.0-1289.0","taffy","sauce","taffy",NA,NA,NA,10,1,"female",45,FALSE,FALSE,TRUE,"Correct"
"02kgvknsak4v935",1.07459999990463,32,15,4,"CuePresentation","TRUE",5,NA,NA,"./images/mountain.png","middle-left","12","65f2ba819e9cf67ac1ae99b1","16_3_2024_9_56_5",2299649,"0.0-1293.0","crepe","coat","crepe",NA,NA,NA,12,1,"female",45,FALSE,FALSE,TRUE,"Correct"
"02kgvknsak4v935",1.106,32,15,5,"CuePresentation","TRUE",5,NA,NA,"./images/mountain.png","middle-left","12","65f2ba819e9cf67ac1ae99b1","16_3_2024_9_56_5",2305369,"0.0-1297.0","garlic","lime","garlic",NA,NA,NA,11,1,"female",45,FALSE,FALSE,TRUE,"Correct"
"02kgvknsak4v935",1.61970000004768,32,15,6,"CuePresentation","TRUE",5,NA,NA,"./images/winter.png","middle-right","3","65f2ba819e9cf67ac1ae99b1","16_3_2024_9_56_5",2311297,"0.0-1301.0","camel","bison","camel",NA,NA,NA,4,1,"female",45,FALSE,FALSE,TRUE,"Correct"
"02kgvknsak4v935",1.35510000014305,32,15,7,"CuePresentation","TRUE",5,NA,NA,"./images/mountain.png","middle-left","12","65f2ba819e9cf67ac1ae99b1","16_3_2024_9_56_5",2316697,"0.0-1305.0","candle","kettle","candle",NA,NA,NA,6,1,"female",45,FALSE,FALSE,TRUE,"Correct"
"02kgvknsak4v935",1.55270000004768,32,15,8,"CuePresentation","TRUE",5,NA,NA,"./images/mountain.png","middle-left","12","65f2ba819e9cf67ac1ae99b1","16_3_2024_9_56_5",2321577,"0.0-1309.0","aloe","onion","aloe",NA,NA,NA,2,1,"female",45,FALSE,FALSE,TRUE,"Correct"
"02kgvknsak4v935",1.4095,32,15,9,"CuePresentation","TRUE",5,NA,NA,"./images/mountain.png","middle-left","12","65f2ba819e9cf67ac1ae99b1","16_3_2024_9_56_5",2326272,"0.0-1313.0","burner","fire","burner",NA,NA,NA,9,1,"female",45,FALSE,FALSE,TRUE,"Correct"
"02kgvknsak4v935",1.13670000004768,32,15,10,"CuePresentation","TRUE",5,NA,NA,"./images/mountain.png","middle-left","12","65f2ba819e9cf67ac1ae99b1","16_3_2024_9_56_5",2330768,"0.0-1317.0","puddle","bucket","puddle",NA,NA,NA,8,1,"female",45,FALSE,FALSE,TRUE,"Correct"
"02kgvknsak4v935",1.71219999980927,32,15,11,"CuePresentation","TRUE",5,NA,NA,"./images/mountain.png","middle-left","12","65f2ba819e9cf67ac1ae99b1","16_3_2024_9_56_5",2336024,"0.0-1321.0","foam","vacuum","foam",NA,NA,NA,3,1,"female",45,FALSE,FALSE,TRUE,"Correct"
"02kgvknsak4v935",1.69790000009537,32,15,12,"CuePresentation","TRUE",5,NA,NA,"./images/winter.png","middle-right","3","65f2ba819e9cf67ac1ae99b1","16_3_2024_9_56_5",2341120,"0.0-1325.0","omelet","stew","omelet",NA,NA,NA,14,1,"female",45,FALSE,FALSE,TRUE,"Correct"
"02kgvknsak4v935",1.32860000014305,32,15,13,"CuePresentation","TRUE",5,NA,NA,"./images/mountain.png","middle-left","12","65f2ba819e9cf67ac1ae99b1","16_3_2024_9_56_5",2346272,"0.0-1329.0","pony","bull","pony",NA,NA,NA,13,1,"female",45,FALSE,FALSE,TRUE,"Correct"
"02kgvknsak4v935",1.26520000004768,32,15,14,"CuePresentation","TRUE",5,NA,NA,"./images/mountain.png","middle-left","12","65f2ba819e9cf67ac1ae99b1","16_3_2024_9_56_5",2350912,"0.0-1333.0","kayak","noose","kayak",NA,NA,NA,15,1,"female",45,FALSE,FALSE,TRUE,"Correct"
"02kgvknsak4v935",1.91219999980927,32,15,15,"CuePresentation","TRUE",5,NA,NA,"./images/mountain.png","middle-left","12","65f2ba819e9cf67ac1ae99b1","16_3_2024_9_56_5",2356463,"0.0-1337.0","insole","anklet","insole",NA,NA,NA,7,1,"female",45,FALSE,FALSE,TRUE,"Correct"
"0egccgphr6k378n",13.350299999997,32,15,1,"CuePresentation","FALSE",1,NA,NA,"./images/winter.png","middle-right","13","65f2ba819e9cf67ac1ae99b1","17_3_2024_12_23_53",406426,"0.0-209.0","deer","lizard","clam",NA,NA,NA,7,0,"female",29,FALSE,FALSE,TRUE,"Intrusion"
"0egccgphr6k378n",2.0705,32,15,2,"CuePresentation","TRUE",1,NA,NA,"./images/winter.png","middle-right","13","65f2ba819e9cf67ac1ae99b1","17_3_2024_12_23_53",411653,"0.0-213.0","horse","deer","horse",NA,NA,NA,8,1,"female",29,FALSE,FALSE,TRUE,"Correct"
"0egccgphr6k378n",1.07090000000596,32,15,3,"CuePresentation","TRUE",1,NA,NA,"./images/winter.png","middle-right","13","65f2ba819e9cf67ac1ae99b1","17_3_2024_12_23_53",415809,"0.0-217.0","crown","shield","crown",NA,NA,NA,5,1,"female",29,FALSE,FALSE,TRUE,"Correct"
"0egccgphr6k378n",4.17539999999106,32,15,4,"CuePresentation","FALSE",1,NA,NA,"./images/lake.png","upper-left","2","65f2ba819e9cf67ac1ae99b1","17_3_2024_12_23_53",423065,"0.0-221.0","raft","dagger","wand",NA,NA,NA,13,0,"female",29,FALSE,FALSE,TRUE,"Intrusion"
"0egccgphr6k378n",5.42640000000596,32,15,5,"CuePresentation","TRUE",1,NA,NA,"./images/winter.png","middle-right","13","65f2ba819e9cf67ac1ae99b1","17_3_2024_12_23_53",431756,"0.0-225.0","coin","mallet","coin",NA,NA,NA,1,1,"female",29,FALSE,FALSE,TRUE,"Correct"
"0egccgphr6k378n",2.69190000000596,32,15,6,"CuePresentation","TRUE",1,NA,NA,"./images/winter.png","middle-right","13","65f2ba819e9cf67ac1ae99b1","17_3_2024_12_23_53",439554,"0.0-229.0","barrel","rifle","barrel",NA,NA,NA,10,1,"female",29,FALSE,FALSE,TRUE,"Correct"
"0egccgphr6k378n",1.20990000000596,32,15,7,"CuePresentation","TRUE",1,NA,NA,"./images/winter.png","middle-right","13","65f2ba819e9cf67ac1ae99b1","17_3_2024_12_23_53",444078,"0.0-233.0","bull","pony","bull",NA,NA,NA,3,1,"female",29,FALSE,FALSE,TRUE,"Correct"
"0egccgphr6k378n",1.032,32,15,8,"CuePresentation","TRUE",1,NA,NA,"./images/winter.png","middle-right","13","65f2ba819e9cf67ac1ae99b1","17_3_2024_12_23_53",448655,"0.0-237.0","elbow","nose","elbow",NA,NA,NA,4,1,"female",29,FALSE,FALSE,TRUE,"Correct"
"0egccgphr6k378n",1.54929999999702,32,15,9,"CuePresentation","TRUE",1,NA,NA,"./images/winter.png","middle-right","13","65f2ba819e9cf67ac1ae99b1","17_3_2024_12_23_53",454187,"0.0-241.0","raf","walrus","raft",NA,NA,NA,11,1,"female",29,FALSE,FALSE,TRUE,"Correct"
"0egccgphr6k378n",2.19009999999404,32,15,10,"CuePresentation","TRUE",1,NA,NA,"./images/lake.png","upper-left","2","65f2ba819e9cf67ac1ae99b1","17_3_2024_12_23_53",459415,"0.0-245.0","plant","pliers","plant",NA,NA,NA,14,1,"female",29,FALSE,FALSE,TRUE,"Correct"
"0egccgphr6k378n",3.298,32,15,11,"CuePresentation","FALSE",1,NA,NA,"./images/winter.png","middle-right","13","65f2ba819e9cf67ac1ae99b1","17_3_2024_12_23_53",465505,"0.0-249.0","wig","statue","flag",NA,NA,NA,2,0,"female",29,FALSE,FALSE,TRUE,"Intrusion"
"0egccgphr6k378n",1.21089999999106,32,15,12,"CuePresentation","TRUE",1,NA,NA,"./images/winter.png","middle-right","13","65f2ba819e9cf67ac1ae99b1","17_3_2024_12_23_53",469875,"0.0-253.0","ribbon","pencil","ribbon",NA,NA,NA,15,1,"female",29,FALSE,FALSE,TRUE,"Correct"
"0egccgphr6k378n",8.10910000000894,32,15,13,"CuePresentation","FALSE",1,NA,NA,"./images/winter.png","middle-right","13","65f2ba819e9cf67ac1ae99b1","17_3_2024_12_23_53",481154,"0.0-257.0","rif","zipper","pallet",NA,NA,NA,12,0,"female",29,FALSE,FALSE,TRUE,"Misspelled Intrusion"
"0egccgphr6k378n",3.90610000000894,32,15,14,"CuePresentation","FALSE",1,NA,NA,"./images/winter.png","middle-right","13","65f2ba819e9cf67ac1ae99b1","17_3_2024_12_23_53",489560,"0.0-261.0","sta","cord","duct",NA,NA,NA,6,0,"female",29,FALSE,FALSE,TRUE,"Misspelled Intrusion"
"0egccgphr6k378n",1.38370000000298,32,15,15,"CuePresentation","TRUE",1,NA,NA,"./images/winter.png","middle-right","13","65f2ba819e9cf67ac1ae99b1","17_3_2024_12_23_53",493788,"0.0-265.0","shri","grille","shrimp",NA,NA,NA,9,1,"female",29,FALSE,FALSE,TRUE,"Correct"
"0egccgphr6k378n",3.80130000001192,32,15,1,"CuePresentation","FALSE",2,NA,NA,"./images/sunset.png","lower-left","6","65f2ba819e9cf67ac1ae99b1","17_3_2024_12_23_53",870751,"0.0-477.0","0","punch","anvil",NA,NA,NA,8,0,"female",29,FALSE,FALSE,TRUE,"Omission"
"0egccgphr6k378n",2.1785,32,15,2,"CuePresentation","TRUE",2,NA,NA,"./images/ocean.jpg","middle-top","9","65f2ba819e9cf67ac1ae99b1","17_3_2024_12_23_53",875799,"0.0-481.0","gla","amber","glass",NA,NA,NA,1,1,"female",29,FALSE,FALSE,TRUE,"Correct"
"0egccgphr6k378n",1.7155,32,15,3,"CuePresentation","TRUE",2,NA,NA,"./images/ocean.jpg","middle-top","9","65f2ba819e9cf67ac1ae99b1","17_3_2024_12_23_53",880739,"0.0-485.0","coo","sundae","cookie",NA,NA,NA,14,1,"female",29,FALSE,FALSE,TRUE,"Correct"
"0egccgphr6k378n",0.905100000008941,32,15,4,"CuePresentation","TRUE",2,NA,NA,"./images/ocean.jpg","middle-top","9","65f2ba819e9cf67ac1ae99b1","17_3_2024_12_23_53",885118,"0.0-489.0","keb","pita","kebab",NA,NA,NA,4,1,"female",29,FALSE,FALSE,TRUE,"Correct"
"0egccgphr6k378n",6.60370000000298,32,15,5,"CuePresentation","FALSE",2,NA,NA,"./images/sunset.png","lower-left","6","65f2ba819e9cf67ac1ae99b1","17_3_2024_12_23_53",894770,"0.0-493.0","liz","toad","wasp",NA,NA,NA,2,0,"female",29,FALSE,FALSE,TRUE,"Intrusion"
"0egccgphr6k378n",3.329,32,15,6,"CuePresentation","FALSE",2,NA,NA,"./images/sunset.png","lower-left","6","65f2ba819e9cf67ac1ae99b1","17_3_2024_12_23_53",901055,"0.0-497.0","0","kite","bubble",NA,NA,NA,5,0,"female",29,FALSE,FALSE,TRUE,"Omission"
"0egccgphr6k378n",3.179,32,15,7,"CuePresentation","FALSE",2,NA,NA,"./images/ocean.jpg","middle-top","9","65f2ba819e9cf67ac1ae99b1","17_3_2024_12_23_53",906807,"0.0-501.0","fla","floss","powder",NA,NA,NA,3,0,"female",29,FALSE,FALSE,TRUE,"Misspelled Intrusion"
"0egccgphr6k378n",2.99270000000298,32,15,8,"CuePresentation","TRUE",2,NA,NA,"./images/sunset.png","lower-left","6","65f2ba819e9cf67ac1ae99b1","17_3_2024_12_23_53",915178,"0.0-505.0","sock","helmet","sock",NA,NA,NA,9,1,"female",29,FALSE,FALSE,TRUE,"Correct"
"0egccgphr6k378n",2.47520000000298,32,15,9,"CuePresentation","FALSE",2,NA,NA,"./images/sunset.png","lower-left","6","65f2ba819e9cf67ac1ae99b1","17_3_2024_12_23_53",920981,"0.0-509.0","0","chip","card",NA,NA,NA,11,0,"female",29,FALSE,FALSE,TRUE,"Omission"
"0egccgphr6k378n",3.8515,32,15,10,"CuePresentation","FALSE",2,NA,NA,"./images/ocean.jpg","middle-top","9","65f2ba819e9cf67ac1ae99b1","17_3_2024_12_23_53",927175,"0.0-513.0","toa","slug","crab",NA,NA,NA,10,0,"female",29,FALSE,FALSE,TRUE,"Misspelled Intrusion"
"0egccgphr6k378n",5.6735,32,15,11,"CuePresentation","FALSE",2,NA,NA,"./images/ocean.jpg","middle-top","9","65f2ba819e9cf67ac1ae99b1","17_3_2024_12_23_53",935995,"0.0-517.0","sla","slide","sink",NA,NA,NA,12,0,"female",29,FALSE,FALSE,TRUE,"Misspelled Intrusion"
"0egccgphr6k378n",1.14540000000596,32,15,12,"CuePresentation","TRUE",2,NA,NA,"./images/ocean.jpg","middle-top","9","65f2ba819e9cf67ac1ae99b1","17_3_2024_12_23_53",940696,"0.0-521.0","ank","chest","ankle",NA,NA,NA,15,1,"female",29,FALSE,FALSE,TRUE,"Correct"
"0egccgphr6k378n",1.92410000000894,32,15,13,"CuePresentation","TRUE",2,NA,NA,"./images/sunset.png","lower-left","6","65f2ba819e9cf67ac1ae99b1","17_3_2024_12_23_53",945909,"0.0-525.0","pop","dough","poppy",NA,NA,NA,7,1,"female",29,FALSE,FALSE,TRUE,"Correct"
"0egccgphr6k378n",2.19940000000596,32,15,14,"CuePresentation","TRUE",2,NA,NA,"./images/ocean.jpg","middle-top","9","65f2ba819e9cf67ac1ae99b1","17_3_2024_12_23_53",951120,"0.0-529.0","fis","snake","fish",NA,NA,NA,6,1,"female",29,FALSE,FALSE,TRUE,"Correct"
"0egccgphr6k378n",1.3765,32,15,15,"CuePresentation","TRUE",2,NA,NA,"./images/ocean.jpg","middle-top","9","65f2ba819e9cf67ac1ae99b1","17_3_2024_12_23_53",956037,"0.0-533.0","gold","tinsel","gold",NA,NA,NA,13,1,"female",29,FALSE,FALSE,TRUE,"Correct"
"0egccgphr6k378n",3.40560000000894,32,15,1,"CuePresentation","FALSE",3,NA,NA,"./images/NoneContext.jpg","center","None","65f2ba819e9cf67ac1ae99b1","17_3_2024_12_23_53",1307017,"0.0-745.0","rub","hood","trunk",NA,NA,NA,11,0,"female",29,FALSE,FALSE,TRUE,"Intrusion"
"0egccgphr6k378n",3.70229999999702,32,15,2,"CuePresentation","TRUE",3,NA,NA,"./images/NoneContext.jpg","center","None","65f2ba819e9cf67ac1ae99b1","17_3_2024_12_23_53",1314251,"0.0-749.0","ank","insole","anklet",NA,NA,NA,15,1,"female",29,FALSE,FALSE,TRUE,"Correct"
"0egccgphr6k378n",1.104,32,15,3,"CuePresentation","TRUE",3,NA,NA,"./images/NoneContext.jpg","center","None","65f2ba819e9cf67ac1ae99b1","17_3_2024_12_23_53",1318212,"0.0-753.0","pea","petal","peach",NA,NA,NA,12,1,"female",29,FALSE,FALSE,TRUE,"Correct"
"0egccgphr6k378n",1.12359999999404,32,15,4,"CuePresentation","TRUE",3,NA,NA,"./images/NoneContext.jpg","center","None","65f2ba819e9cf67ac1ae99b1","17_3_2024_12_23_53",1322206,"0.0-757.0","bad","earwig","badger",NA,NA,NA,3,1,"female",29,FALSE,FALSE,TRUE,"Correct"
"0egccgphr6k378n",1.85120000000298,32,15,5,"CuePresentation","FALSE",3,NA,NA,"./images/NoneContext.jpg","center","None","65f2ba819e9cf67ac1ae99b1","17_3_2024_12_23_53",1327073,"0.0-761.0","rub","magnet","crank",NA,NA,NA,9,0,"female",29,FALSE,FALSE,TRUE,"Intrusion"
"0egccgphr6k378n",1.3745,32,15,6,"CuePresentation","FALSE",3,NA,NA,"./images/NoneContext.jpg","center","None","65f2ba819e9cf67ac1ae99b1","17_3_2024_12_23_53",1331806,"0.0-765.0","pur","wallet","drawer",NA,NA,NA,5,0,"female",29,FALSE,FALSE,TRUE,"Intrusion"
"0egccgphr6k378n",2.14679999999702,32,15,7,"CuePresentation","FALSE",3,NA,NA,"./images/NoneContext.jpg","center","None","65f2ba819e9cf67ac1ae99b1","17_3_2024_12_23_53",1336721,"0.0-769.0","hoo","meat","pear",NA,NA,NA,2,0,"female",29,FALSE,FALSE,TRUE,"Misspelled Intrusion"
"0egccgphr6k378n",0.955,32,15,8,"CuePresentation","TRUE",3,NA,NA,"./images/NoneContext.jpg","center","None","65f2ba819e9cf67ac1ae99b1","17_3_2024_12_23_53",1341518,"0.0-773.0","che","olive","cheese",NA,NA,NA,4,1,"female",29,FALSE,FALSE,TRUE,"Correct"
"0egccgphr6k378n",1.52920000000298,32,15,9,"CuePresentation","FALSE",3,NA,NA,"./images/NoneContext.jpg","center","None","65f2ba819e9cf67ac1ae99b1","17_3_2024_12_23_53",1346005,"0.0-777.0","mal","rudder","yacht",NA,NA,NA,10,0,"female",29,FALSE,FALSE,TRUE,"Misspelled Intrusion"
"0egccgphr6k378n",3.97610000000894,32,15,10,"CuePresentation","TRUE",3,NA,NA,"./images/NoneContext.jpg","center","None","65f2ba819e9cf67ac1ae99b1","17_3_2024_12_23_53",1353105,"0.0-781.0","fil","album","film",NA,NA,NA,14,1,"female",29,FALSE,FALSE,TRUE,"Correct"
"0egccgphr6k378n",1.30140000000596,32,15,11,"CuePresentation","TRUE",3,NA,NA,"./images/NoneContext.jpg","center","None","65f2ba819e9cf67ac1ae99b1","17_3_2024_12_23_53",1357426,"0.0-785.0","oran","patch","orange",NA,NA,NA,8,1,"female",29,FALSE,FALSE,TRUE,"Correct"
"0egccgphr6k378n",1.71029999999702,32,15,12,"CuePresentation","FALSE",3,NA,NA,"./images/NoneContext.jpg","center","None","65f2ba819e9cf67ac1ae99b1","17_3_2024_12_23_53",1362557,"0.0-789.0","wor","tape","wire",NA,NA,NA,13,0,"female",29,FALSE,FALSE,TRUE,"Misspelled Intrusion"
"0egccgphr6k378n",2.654,32,15,13,"CuePresentation","FALSE",3,NA,NA,"./images/NoneContext.jpg","center","None","65f2ba819e9cf67ac1ae99b1","17_3_2024_12_23_53",1369580,"0.0-793.0","0","blower","rattle",NA,NA,NA,6,0,"female",29,FALSE,FALSE,TRUE,"Omission"
"0egccgphr6k378n",0.962,32,15,14,"CuePresentation","TRUE",3,NA,NA,"./images/NoneContext.jpg","center","None","65f2ba819e9cf67ac1ae99b1","17_3_2024_12_23_53",1374345,"0.0-797.0","pur","jacket","purse",NA,NA,NA,1,1,"female",29,FALSE,FALSE,TRUE,"Correct"
"0egccgphr6k378n",1.77189999999106,32,15,15,"CuePresentation","FALSE",3,NA,NA,"./images/NoneContext.jpg","center","None","65f2ba819e9cf67ac1ae99b1","17_3_2024_12_23_53",1379229,"0.0-801.0","mal","chair","board",NA,NA,NA,7,0,"female",29,FALSE,FALSE,TRUE,"Misspelled Intrusion"
"0egccgphr6k378n",2.51529999999702,32,15,1,"CuePresentation","FALSE",4,NA,NA,"./images/mountain.png","middle-left","12","65f2ba819e9cf67ac1ae99b1","17_3_2024_12_23_53",1723648,"0.0-1013.0","0","violin","organ",NA,NA,NA,11,0,"female",29,FALSE,FALSE,TRUE,"Omission"
"0egccgphr6k378n",2.67490000000596,32,15,2,"CuePresentation","TRUE",4,NA,NA,"./images/mountain.png","middle-left","12","65f2ba819e9cf67ac1ae99b1","17_3_2024_12_23_53",1730246,"0.0-1017.0","bul","sword","bullet",NA,NA,NA,6,1,"female",29,FALSE,FALSE,TRUE,"Correct"
"0egccgphr6k378n",2.231,32,15,3,"CuePresentation","TRUE",4,NA,NA,"./images/mountain.png","middle-left","12","65f2ba819e9cf67ac1ae99b1","17_3_2024_12_23_53",1736066,"0.0-1021.0","ton","cake","tongs",NA,NA,NA,8,1,"female",29,FALSE,FALSE,TRUE,"Correct"
"0egccgphr6k378n",6.04340000000596,32,15,4,"CuePresentation","FALSE",4,NA,NA,"./images/beach.png","upper-right","3","65f2ba819e9cf67ac1ae99b1","17_3_2024_12_23_53",1744967,"0.0-1025.0","fer","leech","snail",NA,NA,NA,13,0,"female",29,FALSE,FALSE,TRUE,"Intrusion"
"0egccgphr6k378n",1.99829999999702,32,15,5,"CuePresentation","TRUE",4,NA,NA,"./images/mountain.png","middle-left","12","65f2ba819e9cf67ac1ae99b1","17_3_2024_12_23_53",1750175,"0.0-1029.0","mag","ferret","maggot",NA,NA,NA,1,1,"female",29,FALSE,FALSE,TRUE,"Correct"
"0egccgphr6k378n",6.493,32,15,6,"CuePresentation","FALSE",4,NA,NA,"./images/mountain.png","middle-left","12","65f2ba819e9cf67ac1ae99b1","17_3_2024_12_23_53",1759588,"0.0-1033.0","fru","prune","berry",NA,NA,NA,10,0,"female",29,FALSE,FALSE,TRUE,"Misspelled Intrusion"
"0egccgphr6k378n",1.34070000000298,32,15,7,"CuePresentation","TRUE",4,NA,NA,"./images/mountain.png","middle-left","12","65f2ba819e9cf67ac1ae99b1","17_3_2024_12_23_53",1764401,"0.0-1037.0","kno","dial","knob",NA,NA,NA,9,1,"female",29,FALSE,FALSE,TRUE,"Correct"
"0egccgphr6k378n",1.60869999998808,32,15,8,"CuePresentation","FALSE",4,NA,NA,"./images/mountain.png","middle-left","12","65f2ba819e9cf67ac1ae99b1","17_3_2024_12_23_53",1768965,"0.0-1041.0","0","sheath","pulley",NA,NA,NA,14,0,"female",29,FALSE,FALSE,TRUE,"Omission"
"0egccgphr6k378n",1.84189999999106,32,15,9,"CuePresentation","TRUE",4,NA,NA,"./images/mountain.png","middle-left","12","65f2ba819e9cf67ac1ae99b1","17_3_2024_12_23_53",1773931,"0.0-1045.0","latte","patty","latte",NA,NA,NA,5,1,"female",29,FALSE,FALSE,TRUE,"Correct"
"0egccgphr6k378n",2.87319999998808,32,15,10,"CuePresentation","FALSE",4,NA,NA,"./images/mountain.png","middle-left","12","65f2ba819e9cf67ac1ae99b1","17_3_2024_12_23_53",1779942,"0.0-1049.0","0","tray","donut",NA,NA,NA,3,0,"female",29,FALSE,FALSE,TRUE,"Omission"
"0egccgphr6k378n",2.7255,32,15,11,"CuePresentation","FALSE",4,NA,NA,"./images/beach.png","upper-right","3","65f2ba819e9cf67ac1ae99b1","17_3_2024_12_23_53",1785180,"0.0-1053.0","lee","hook","roll",NA,NA,NA,12,0,"female",29,FALSE,FALSE,TRUE,"Intrusion"
"0egccgphr6k378n",3.5895,32,15,12,"CuePresentation","TRUE",4,NA,NA,"./images/mountain.png","middle-left","12","65f2ba819e9cf67ac1ae99b1","17_3_2024_12_23_53",1791881,"0.0-1057.0","tur","hyena","turtle",NA,NA,NA,4,1,"female",29,FALSE,FALSE,TRUE,"Correct"
"0egccgphr6k378n",2.24030000001192,32,15,13,"CuePresentation","TRUE",4,NA,NA,"./images/beach.png","upper-right","3","65f2ba819e9cf67ac1ae99b1","17_3_2024_12_23_53",1797114,"0.0-1061.0","chi","sushi","chili",NA,NA,NA,7,1,"female",29,FALSE,FALSE,TRUE,"Correct"
"0egccgphr6k378n",1.74280000001192,32,15,14,"CuePresentation","TRUE",4,NA,NA,"./images/mountain.png","middle-left","12","65f2ba819e9cf67ac1ae99b1","17_3_2024_12_23_53",1801661,"0.0-1065.0","duc","beaver","duck",NA,NA,NA,2,1,"female",29,FALSE,FALSE,TRUE,"Correct"
"0egccgphr6k378n",2.30310000000894,32,15,15,"CuePresentation","FALSE",4,NA,NA,"./images/mountain.png","middle-left","12","65f2ba819e9cf67ac1ae99b1","17_3_2024_12_23_53",1807091,"0.0-1069.0","0","tile","stair",NA,NA,NA,15,0,"female",29,FALSE,FALSE,TRUE,"Omission"
"0egccgphr6k378n",3.99169999998808,32,15,1,"CuePresentation","FALSE",5,NA,NA,"./images/supermarket.png","lower-right","11","65f2ba819e9cf67ac1ae99b1","17_3_2024_12_23_53",2151590,"0.0-1281.0","0","filter","prism",NA,NA,NA,11,0,"female",29,FALSE,FALSE,TRUE,"Omission"
"0egccgphr6k378n",1.45960000000894,32,15,2,"CuePresentation","TRUE",5,NA,NA,"./images/park.png","middle-bottom","4","65f2ba819e9cf67ac1ae99b1","17_3_2024_12_23_53",2155768,"0.0-1285.0","coo","dryer","cooler",NA,NA,NA,15,1,"female",29,FALSE,FALSE,TRUE,"Correct"
"0egccgphr6k378n",1.555,32,15,3,"CuePresentation","TRUE",5,NA,NA,"./images/supermarket.png","lower-right","11","65f2ba819e9cf67ac1ae99b1","17_3_2024_12_23_53",2160211,"0.0-1289.0","mou","finger","mouse",NA,NA,NA,5,1,"female",29,FALSE,FALSE,TRUE,"Correct"
"0egccgphr6k378n",3.52940000000596,32,15,4,"CuePresentation","TRUE",5,NA,NA,"./images/supermarket.png","lower-right","11","65f2ba819e9cf67ac1ae99b1","17_3_2024_12_23_53",2166772,"0.0-1293.0","san","blouse","sandal",NA,NA,NA,12,1,"female",29,FALSE,FALSE,TRUE,"Correct"
"0egccgphr6k378n",2.894,32,15,5,"CuePresentation","FALSE",5,NA,NA,"./images/supermarket.png","lower-right","11","65f2ba819e9cf67ac1ae99b1","17_3_2024_12_23_53",2172377,"0.0-1297.0","0","cage","door",NA,NA,NA,8,0,"female",29,FALSE,FALSE,TRUE,"Omission"
"0egccgphr6k378n",1.62740000000596,32,15,6,"CuePresentation","TRUE",5,NA,NA,"./images/supermarket.png","lower-right","11","65f2ba819e9cf67ac1ae99b1","17_3_2024_12_23_53",2176690,"0.0-1301.0","bab","poodle","baby",NA,NA,NA,3,1,"female",29,FALSE,FALSE,TRUE,"Correct"
"0egccgphr6k378n",2.45429999999702,32,15,7,"CuePresentation","FALSE",5,NA,NA,"./images/supermarket.png","lower-right","11","65f2ba819e9cf67ac1ae99b1","17_3_2024_12_23_53",2182007,"0.0-1305.0","0","bedpan","chin",NA,NA,NA,9,0,"female",29,FALSE,FALSE,TRUE,"Omission"
"0egccgphr6k378n",3.70179999999702,32,15,8,"CuePresentation","TRUE",5,NA,NA,"./images/supermarket.png","lower-right","11","65f2ba819e9cf67ac1ae99b1","17_3_2024_12_23_53",2188559,"0.0-1309.0","bon","cape","bonnet",NA,NA,NA,7,1,"female",29,FALSE,FALSE,TRUE,"Correct"
"0egccgphr6k378n",2.1455,32,15,9,"CuePresentation","FALSE",5,NA,NA,"./images/supermarket.png","lower-right","11","65f2ba819e9cf67ac1ae99b1","17_3_2024_12_23_53",2193889,"0.0-1313.0","0","racket","hubcap",NA,NA,NA,4,0,"female",29,FALSE,FALSE,TRUE,"Omission"
"0egccgphr6k378n",2.32770000000298,32,15,10,"CuePresentation","TRUE",5,NA,NA,"./images/park.png","middle-bottom","4","65f2ba819e9cf67ac1ae99b1","17_3_2024_12_23_53",2198788,"0.0-1317.0","yol","pesto","yolk",NA,NA,NA,6,1,"female",29,FALSE,FALSE,TRUE,"Correct"
"0egccgphr6k378n",1.49760000000894,32,15,11,"CuePresentation","TRUE",5,NA,NA,"./images/supermarket.png","lower-right","11","65f2ba819e9cf67ac1ae99b1","17_3_2024_12_23_53",2203985,"0.0-1321.0","whi","grits","whisk",NA,NA,NA,1,1,"female",29,FALSE,FALSE,TRUE,"Correct"
"0egccgphr6k378n",3.24379999999702,32,15,12,"CuePresentation","FALSE",5,NA,NA,"./images/supermarket.png","lower-right","11","65f2ba819e9cf67ac1ae99b1","17_3_2024_12_23_53",2210129,"0.0-1325.0","bla","roller","paddle",NA,NA,NA,10,0,"female",29,FALSE,FALSE,TRUE,"Misspelled Intrusion"
"0egccgphr6k378n",2.00119999998808,32,15,13,"CuePresentation","TRUE",5,NA,NA,"./images/park.png","middle-bottom","4","65f2ba819e9cf67ac1ae99b1","17_3_2024_12_23_53",2214851,"0.0-1329.0","scu","buoy","scuba",NA,NA,NA,14,1,"female",29,FALSE,FALSE,TRUE,"Correct"
"0egccgphr6k378n",2.754,32,15,14,"CuePresentation","FALSE",5,NA,NA,"./images/supermarket.png","lower-right","11","65f2ba819e9cf67ac1ae99b1","17_3_2024_12_23_53",2220426,"0.0-1333.0","0","omelet","stew",NA,NA,NA,13,0,"female",29,FALSE,FALSE,TRUE,"Omission"
"0egccgphr6k378n",3.03059999999404,32,15,15,"CuePresentation","FALSE",5,NA,NA,"./images/park.png","middle-bottom","4","65f2ba819e9cf67ac1ae99b1","17_3_2024_12_23_53",2225990,"0.0-1337.0","0","baton","lamp",NA,NA,NA,2,0,"female",29,FALSE,FALSE,TRUE,"Omission"
"0exa33veem2u379",5.774,32,15,1,"CuePresentation","TRUE",1,NA,NA,"./images/beach.png","upper-right","12","65f2ba819e9cf67ac1ae99b1","22_3_2024_7_24_37",496166,"0.0-209.0","kno","dial","knob",NA,NA,NA,9,1,"male",34,FALSE,FALSE,TRUE,"Correct"
"0exa33veem2u379",5,32,15,2,"CuePresentation","TRUE",1,NA,NA,"./images/beach.png","upper-right","12","65f2ba819e9cf67ac1ae99b1","22_3_2024_7_24_37",506821,"0.0-213.0","dou","poppy","dough",NA,NA,NA,14,1,"male",34,FALSE,FALSE,TRUE,"Correct"
"0exa33veem2u379",7.038,32,15,3,"CuePresentation","TRUE",1,NA,NA,"./images/beach.png","upper-right","12","65f2ba819e9cf67ac1ae99b1","22_3_2024_7_24_37",518301,"0.0-217.0","sho","buggy","shoe",NA,NA,NA,2,1,"male",34,FALSE,FALSE,TRUE,"Correct"
"0exa33veem2u379",4.022,32,15,4,"CuePresentation","TRUE",1,NA,NA,"./images/beach.png","upper-right","12","65f2ba819e9cf67ac1ae99b1","22_3_2024_7_24_37",526358,"0.0-221.0","tape","wire","tape",NA,NA,NA,11,1,"male",34,FALSE,FALSE,TRUE,"Correct"
"0exa33veem2u379",9.159,32,15,5,"CuePresentation","TRUE",1,NA,NA,"./images/park.png","middle-bottom","3","65f2ba819e9cf67ac1ae99b1","22_3_2024_7_24_37",539558,"0.0-225.0","clo","beard","cloak",NA,NA,NA,13,1,"male",34,FALSE,FALSE,TRUE,"Correct"
"0exa33veem2u379",4.905,32,15,6,"CuePresentation","TRUE",1,NA,NA,"./images/park.png","middle-bottom","3","65f2ba819e9cf67ac1ae99b1","22_3_2024_7_24_37",548030,"0.0-229.0","clay","sponge","clay",NA,NA,NA,6,1,"male",34,FALSE,FALSE,TRUE,"Correct"
"0exa33veem2u379",5.144,32,15,7,"CuePresentation","TRUE",1,NA,NA,"./images/beach.png","upper-right","12","65f2ba819e9cf67ac1ae99b1","22_3_2024_7_24_37",557062,"0.0-233.0","fen","teepee","fence",NA,NA,NA,3,1,"male",34,FALSE,FALSE,TRUE,"Correct"
"0exa33veem2u379",6.218,32,15,8,"CuePresentation","TRUE",1,NA,NA,"./images/beach.png","upper-right","12","65f2ba819e9cf67ac1ae99b1","22_3_2024_7_24_37",566605,"0.0-237.0","coil","airbag","coil",NA,NA,NA,7,1,"male",34,FALSE,FALSE,TRUE,"Correct"
"0exa33veem2u379",6.427,32,15,9,"CuePresentation","FALSE",1,NA,NA,"./images/beach.png","upper-right","12","65f2ba819e9cf67ac1ae99b1","22_3_2024_7_24_37",577334,"0.0-241.0","yoh","drink","yogurt",NA,NA,NA,1,0,"male",34,FALSE,FALSE,TRUE,"Misspelled Intrusion"
"0exa33veem2u379",4.473,32,15,10,"CuePresentation","TRUE",1,NA,NA,"./images/park.png","middle-bottom","3","65f2ba819e9cf67ac1ae99b1","22_3_2024_7_24_37",587893,"0.0-245.0","whi","grits","whisk",NA,NA,NA,10,1,"male",34,FALSE,FALSE,TRUE,"Correct"
"0exa33veem2u379",5.167,32,15,11,"CuePresentation","FALSE",1,NA,NA,"./images/beach.png","upper-right","12","65f2ba819e9cf67ac1ae99b1","22_3_2024_7_24_37",597301,"0.0-249.0","con","plug","modem",NA,NA,NA,8,0,"male",34,FALSE,FALSE,TRUE,"Intrusion"
"0exa33veem2u379",3.601,32,15,12,"CuePresentation","TRUE",1,NA,NA,"./images/beach.png","upper-right","12","65f2ba819e9cf67ac1ae99b1","22_3_2024_7_24_37",606389,"0.0-253.0","bea","jewel","bead",NA,NA,NA,15,1,"male",34,FALSE,FALSE,TRUE,"Correct"
"0exa33veem2u379",6.07,32,15,13,"CuePresentation","TRUE",1,NA,NA,"./images/beach.png","upper-right","12","65f2ba819e9cf67ac1ae99b1","22_3_2024_7_24_37",616501,"0.0-257.0","pru","berry","prune",NA,NA,NA,5,1,"male",34,FALSE,FALSE,TRUE,"Correct"
"0exa33veem2u379",7.805,32,15,14,"CuePresentation","TRUE",1,NA,NA,"./images/beach.png","upper-right","12","65f2ba819e9cf67ac1ae99b1","22_3_2024_7_24_37",628685,"0.0-261.0","tur","hyena","turtle",NA,NA,NA,4,1,"male",34,FALSE,FALSE,TRUE,"Correct"
"0exa33veem2u379",3.223,32,15,15,"CuePresentation","TRUE",1,NA,NA,"./images/beach.png","upper-right","12","65f2ba819e9cf67ac1ae99b1","22_3_2024_7_24_37",635925,"0.0-265.0","roc","lava","rock",NA,NA,NA,12,1,"male",34,FALSE,FALSE,TRUE,"Correct"
"0exa33veem2u379",11.585,32,15,1,"CuePresentation","FALSE",2,NA,NA,"./images/NoneContext.jpg","center","None","65f2ba819e9cf67ac1ae99b1","22_3_2024_7_24_37",1153380,"0.0-477.0","tea","ship","train",NA,NA,NA,4,0,"male",34,FALSE,FALSE,TRUE,"Intrusion"
"0exa33veem2u379",11.793,32,15,2,"CuePresentation","TRUE",2,NA,NA,"./images/NoneContext.jpg","center","None","65f2ba819e9cf67ac1ae99b1","22_3_2024_7_24_37",1170147,"0.0-481.0","vis","robe","visor",NA,NA,NA,11,1,"male",34,FALSE,FALSE,TRUE,"Correct"
"0exa33veem2u379",8.884,32,15,3,"CuePresentation","TRUE",2,NA,NA,"./images/NoneContext.jpg","center","None","65f2ba819e9cf67ac1ae99b1","22_3_2024_7_24_37",1183124,"0.0-485.0","flo","powder","floss",NA,NA,NA,8,1,"male",34,FALSE,FALSE,TRUE,"Correct"
"0exa33veem2u379",11.234,32,15,4,"CuePresentation","TRUE",2,NA,NA,"./images/NoneContext.jpg","center","None","65f2ba819e9cf67ac1ae99b1","22_3_2024_7_24_37",1198499,"0.0-489.0","pos","book","poster",NA,NA,NA,15,1,"male",34,FALSE,FALSE,TRUE,"Correct"
"0exa33veem2u379",8.247,32,15,5,"CuePresentation","TRUE",2,NA,NA,"./images/NoneContext.jpg","center","None","65f2ba819e9cf67ac1ae99b1","22_3_2024_7_24_37",1211755,"0.0-493.0","foa","vacuum","foam",NA,NA,NA,3,1,"male",34,FALSE,FALSE,TRUE,"Correct"
"0exa33veem2u379",6.367,32,15,6,"CuePresentation","FALSE",2,NA,NA,"./images/NoneContext.jpg","center","None","65f2ba819e9cf67ac1ae99b1","22_3_2024_7_24_37",1221740,"0.0-497.0","ran","panda","rabbit",NA,NA,NA,14,0,"male",34,FALSE,FALSE,TRUE,"Intrusion"
"0exa33veem2u379",8.11,32,15,7,"CuePresentation","TRUE",2,NA,NA,"./images/NoneContext.jpg","center","None","65f2ba819e9cf67ac1ae99b1","22_3_2024_7_24_37",1233508,"0.0-501.0","but","bowl","butter",NA,NA,NA,13,1,"male",34,FALSE,FALSE,TRUE,"Correct"
"0exa33veem2u379",8.698,32,15,8,"CuePresentation","FALSE",2,NA,NA,"./images/NoneContext.jpg","center","None","65f2ba819e9cf67ac1ae99b1","22_3_2024_7_24_37",1246699,"0.0-505.0","doo","latch","gasket",NA,NA,NA,1,0,"male",34,FALSE,FALSE,TRUE,"Misspelled Intrusion"
"0exa33veem2u379",5.509,32,15,9,"CuePresentation","TRUE",2,NA,NA,"./images/NoneContext.jpg","center","None","65f2ba819e9cf67ac1ae99b1","22_3_2024_7_24_37",1256356,"0.0-509.0","sub","taxi","subway",NA,NA,NA,12,1,"male",34,FALSE,FALSE,TRUE,"Correct"
"0exa33veem2u379",14.102,32,15,10,"CuePresentation","FALSE",2,NA,NA,"./images/NoneContext.jpg","center","None","65f2ba819e9cf67ac1ae99b1","22_3_2024_7_24_37",1274188,"0.0-513.0","dip","fondue","leek",NA,NA,NA,2,0,"male",34,FALSE,FALSE,TRUE,"Intrusion"
"0exa33veem2u379",4.857,32,15,11,"CuePresentation","FALSE",2,NA,NA,"./images/NoneContext.jpg","center","None","65f2ba819e9cf67ac1ae99b1","22_3_2024_7_24_37",1283564,"0.0-517.0","pea","almond","okra",NA,NA,NA,7,0,"male",34,FALSE,FALSE,TRUE,"Intrusion"
"0exa33veem2u379",6.3,32,15,12,"CuePresentation","FALSE",2,NA,NA,"./images/NoneContext.jpg","center","None","65f2ba819e9cf67ac1ae99b1","22_3_2024_7_24_37",1293964,"0.0-521.0","0","shark","worm",NA,NA,NA,6,0,"male",34,FALSE,FALSE,TRUE,"Omission"
"0exa33veem2u379",9.231,32,15,13,"CuePresentation","FALSE",2,NA,NA,"./images/NoneContext.jpg","center","None","65f2ba819e9cf67ac1ae99b1","22_3_2024_7_24_37",1306179,"0.0-525.0","boo","pastry","mussel",NA,NA,NA,9,0,"male",34,FALSE,FALSE,TRUE,"Intrusion"
"0exa33veem2u379",6.981,32,15,14,"CuePresentation","FALSE",2,NA,NA,"./images/NoneContext.jpg","center","None","65f2ba819e9cf67ac1ae99b1","22_3_2024_7_24_37",1318195,"0.0-529.0","0","gold","tinsel",NA,NA,NA,5,0,"male",34,FALSE,FALSE,TRUE,"Omission"
"0exa33veem2u379",3.376,32,15,15,"CuePresentation","TRUE",2,NA,NA,"./images/NoneContext.jpg","center","None","65f2ba819e9cf67ac1ae99b1","22_3_2024_7_24_37",1324796,"0.0-533.0","girl","doll","girl",NA,NA,NA,10,1,"male",34,FALSE,FALSE,TRUE,"Correct"
"0exa33veem2u379",8.195,32,15,1,"CuePresentation","TRUE",3,NA,NA,"./images/mountain.png","middle-left","8","65f2ba819e9cf67ac1ae99b1","22_3_2024_7_24_37",1836705,"0.0-745.0","dra","wallet","drawer",NA,NA,NA,8,1,"male",34,FALSE,FALSE,TRUE,"Correct"
"0exa33veem2u379",4.017,32,15,2,"CuePresentation","TRUE",3,NA,NA,"./images/lake.png","upper-left","7","65f2ba819e9cf67ac1ae99b1","22_3_2024_7_24_37",1844747,"0.0-749.0","mel","cereal","melon",NA,NA,NA,2,1,"male",34,FALSE,FALSE,TRUE,"Correct"
"0exa33veem2u379",6.789,32,15,3,"CuePresentation","TRUE",3,NA,NA,"./images/lake.png","upper-left","7","65f2ba819e9cf67ac1ae99b1","22_3_2024_7_24_37",1855402,"0.0-753.0","bru","hair","brush",NA,NA,NA,10,1,"male",34,FALSE,FALSE,TRUE,"Correct"
"0exa33veem2u379",5.537,32,15,4,"CuePresentation","TRUE",3,NA,NA,"./images/lake.png","upper-left","7","65f2ba819e9cf67ac1ae99b1","22_3_2024_7_24_37",1865106,"0.0-757.0","fus","bolt","fuse",NA,NA,NA,15,1,"male",34,FALSE,FALSE,TRUE,"Correct"
"0exa33veem2u379",4.721,32,15,5,"CuePresentation","TRUE",3,NA,NA,"./images/mountain.png","middle-left","8","65f2ba819e9cf67ac1ae99b1","22_3_2024_7_24_37",1873499,"0.0-761.0","wre","belt","wrench",NA,NA,NA,14,1,"male",34,FALSE,FALSE,TRUE,"Correct"
"0exa33veem2u379",7.869,32,15,6,"CuePresentation","TRUE",3,NA,NA,"./images/mountain.png","middle-left","8","65f2ba819e9cf67ac1ae99b1","22_3_2024_7_24_37",1885850,"0.0-765.0","car","syrup","carrot",NA,NA,NA,7,1,"male",34,FALSE,FALSE,TRUE,"Correct"
"0exa33veem2u379",6.794,32,15,7,"CuePresentation","TRUE",3,NA,NA,"./images/lake.png","upper-left","7","65f2ba819e9cf67ac1ae99b1","22_3_2024_7_24_37",1896122,"0.0-769.0","vas","orchid","vase",NA,NA,NA,9,1,"male",34,FALSE,FALSE,TRUE,"Correct"
"0exa33veem2u379",11.734,32,15,8,"CuePresentation","FALSE",3,NA,NA,"./images/mountain.png","middle-left","8","65f2ba819e9cf67ac1ae99b1","22_3_2024_7_24_37",1911666,"0.0-773.0","0","cork","hookah",NA,NA,NA,3,0,"male",34,FALSE,FALSE,TRUE,"Omission"
"0exa33veem2u379",4.798,32,15,9,"CuePresentation","TRUE",3,NA,NA,"./images/lake.png","upper-left","7","65f2ba819e9cf67ac1ae99b1","22_3_2024_7_24_37",1922258,"0.0-777.0","hon","wine","honey",NA,NA,NA,13,1,"male",34,FALSE,FALSE,TRUE,"Correct"
"0exa33veem2u379",10.526,32,15,10,"CuePresentation","FALSE",3,NA,NA,"./images/mountain.png","middle-left","8","65f2ba819e9cf67ac1ae99b1","22_3_2024_7_24_37",1936618,"0.0-781.0","0","squash","acorn",NA,NA,NA,4,0,"male",34,FALSE,FALSE,TRUE,"Omission"
"0exa33veem2u379",10.771,32,15,11,"CuePresentation","FALSE",3,NA,NA,"./images/lake.png","upper-left","7","65f2ba819e9cf67ac1ae99b1","22_3_2024_7_24_37",1950290,"0.0-785.0","0","rack","pocket",NA,NA,NA,1,0,"male",34,FALSE,FALSE,TRUE,"Omission"
"0exa33veem2u379",5.922,32,15,12,"CuePresentation","TRUE",3,NA,NA,"./images/lake.png","upper-left","7","65f2ba819e9cf67ac1ae99b1","22_3_2024_7_24_37",1959090,"0.0-789.0","rad","juice","radish",NA,NA,NA,12,1,"male",34,FALSE,FALSE,TRUE,"Correct"
"0exa33veem2u379",4.317,32,15,13,"CuePresentation","TRUE",3,NA,NA,"./images/mountain.png","middle-left","8","65f2ba819e9cf67ac1ae99b1","22_3_2024_7_24_37",1967914,"0.0-793.0","rop","gauze","rope",NA,NA,NA,6,1,"male",34,FALSE,FALSE,TRUE,"Correct"
"0exa33veem2u379",6.89,32,15,14,"CuePresentation","FALSE",3,NA,NA,"./images/mountain.png","middle-left","8","65f2ba819e9cf67ac1ae99b1","22_3_2024_7_24_37",1979002,"0.0-797.0","0","gravel","trough",NA,NA,NA,5,0,"male",34,FALSE,FALSE,TRUE,"Omission"
"0exa33veem2u379",5.165,32,15,15,"CuePresentation","TRUE",3,NA,NA,"./images/mountain.png","middle-left","8","65f2ba819e9cf67ac1ae99b1","22_3_2024_7_24_37",1987066,"0.0-801.0","for","shears","fork",NA,NA,NA,11,1,"male",34,FALSE,FALSE,TRUE,"Correct"
"0exa33veem2u379",7.405,32,15,1,"CuePresentation","TRUE",4,NA,NA,"./images/winter.png","middle-right","11","65f2ba819e9cf67ac1ae99b1","22_3_2024_7_24_37",2449393,"0.0-1013.0","nos","elbow","nose",NA,NA,NA,3,1,"male",34,FALSE,FALSE,TRUE,"Correct"
"0exa33veem2u379",4.646,32,15,2,"CuePresentation","TRUE",4,NA,NA,"./images/winter.png","middle-right","11","65f2ba819e9cf67ac1ae99b1","22_3_2024_7_24_37",2458073,"0.0-1017.0","cor","duct","cord",NA,NA,NA,11,1,"male",34,FALSE,FALSE,TRUE,"Correct"
"0exa33veem2u379",5.754,32,15,3,"CuePresentation","TRUE",4,NA,NA,"./images/winter.png","middle-right","11","65f2ba819e9cf67ac1ae99b1","22_3_2024_7_24_37",2467393,"0.0-1021.0","col","hoodie","collar",NA,NA,NA,8,1,"male",34,FALSE,FALSE,TRUE,"Correct"
"0exa33veem2u379",5.934,32,15,4,"CuePresentation","TRUE",4,NA,NA,"./images/sunset.png","lower-left","4","65f2ba819e9cf67ac1ae99b1","22_3_2024_7_24_37",2476824,"0.0-1025.0","ank","insole","anklet",NA,NA,NA,13,1,"male",34,FALSE,FALSE,TRUE,"Correct"
"0exa33veem2u379",3.454,32,15,5,"CuePresentation","TRUE",4,NA,NA,"./images/winter.png","middle-right","11","65f2ba819e9cf67ac1ae99b1","22_3_2024_7_24_37",2483929,"0.0-1029.0","kit","cocoon","kitten",NA,NA,NA,5,1,"male",34,FALSE,FALSE,TRUE,"Correct"
"0exa33veem2u379",5.739,32,15,6,"CuePresentation","TRUE",4,NA,NA,"./images/winter.png","middle-right","11","65f2ba819e9cf67ac1ae99b1","22_3_2024_7_24_37",2492785,"0.0-1033.0","wan","dagger","wand",NA,NA,NA,10,1,"male",34,FALSE,FALSE,TRUE,"Correct"
"0exa33veem2u379",4.445,32,15,7,"CuePresentation","TRUE",4,NA,NA,"./images/sunset.png","lower-left","4","65f2ba819e9cf67ac1ae99b1","22_3_2024_7_24_37",2500088,"0.0-1037.0","hin","pump","hinge",NA,NA,NA,14,1,"male",34,FALSE,FALSE,TRUE,"Correct"
"0exa33veem2u379",2.956,32,15,8,"CuePresentation","TRUE",4,NA,NA,"./images/winter.png","middle-right","11","65f2ba819e9cf67ac1ae99b1","22_3_2024_7_24_37",2506065,"0.0-1041.0","cha","slime","chalk",NA,NA,NA,4,1,"male",34,FALSE,FALSE,TRUE,"Correct"
"0exa33veem2u379",4.04,32,15,9,"CuePresentation","TRUE",4,NA,NA,"./images/winter.png","middle-right","11","65f2ba819e9cf67ac1ae99b1","22_3_2024_7_24_37",2512977,"0.0-1045.0","scu","buoy","scuba",NA,NA,NA,12,1,"male",34,FALSE,FALSE,TRUE,"Correct"
"0exa33veem2u379",8.18,32,15,10,"CuePresentation","TRUE",4,NA,NA,"./images/sunset.png","lower-left","4","65f2ba819e9cf67ac1ae99b1","22_3_2024_7_24_37",2524273,"0.0-1049.0","eag","iguana","eagle",NA,NA,NA,7,1,"male",34,FALSE,FALSE,TRUE,"Correct"
"0exa33veem2u379",6.113,32,15,11,"CuePresentation","TRUE",4,NA,NA,"./images/sunset.png","lower-left","4","65f2ba819e9cf67ac1ae99b1","22_3_2024_7_24_37",2533680,"0.0-1053.0","chi","card","chip",NA,NA,NA,15,1,"male",34,FALSE,FALSE,TRUE,"Correct"
"0exa33veem2u379",15.78,32,15,12,"CuePresentation","TRUE",4,NA,NA,"./images/winter.png","middle-right","11","65f2ba819e9cf67ac1ae99b1","22_3_2024_7_24_37",2552481,"0.0-1057.0","boa","chick","boar",NA,NA,NA,2,1,"male",34,FALSE,FALSE,TRUE,"Correct"
"0exa33veem2u379",3.091,32,15,13,"CuePresentation","TRUE",4,NA,NA,"./images/winter.png","middle-right","11","65f2ba819e9cf67ac1ae99b1","22_3_2024_7_24_37",2559041,"0.0-1061.0","cur","lamb","curry",NA,NA,NA,6,1,"male",34,FALSE,FALSE,TRUE,"Correct"
"0exa33veem2u379",4.4,32,15,14,"CuePresentation","TRUE",4,NA,NA,"./images/winter.png","middle-right","11","65f2ba819e9cf67ac1ae99b1","22_3_2024_7_24_37",2566768,"0.0-1065.0","squ","kiwi","squid",NA,NA,NA,9,1,"male",34,FALSE,FALSE,TRUE,"Correct"
"0exa33veem2u379",6.113,32,15,15,"CuePresentation","TRUE",4,NA,NA,"./images/winter.png","middle-right","11","65f2ba819e9cf67ac1ae99b1","22_3_2024_7_24_37",2576601,"0.0-1069.0","ske","clove","skewer",NA,NA,NA,1,1,"male",34,FALSE,FALSE,TRUE,"Correct"
"0exa33veem2u379",7.983,32,15,1,"CuePresentation","TRUE",5,NA,NA,"./images/ocean.jpg","middle-top","2","65f2ba819e9cf67ac1ae99b1","22_3_2024_7_24_37",3012199,"0.0-1281.0","ste","screen","stereo",NA,NA,NA,12,1,"male",34,FALSE,FALSE,TRUE,"Correct"
"0exa33veem2u379",3.287,32,15,2,"CuePresentation","TRUE",5,NA,NA,"./images/supermarket.png","lower-right","13","65f2ba819e9cf67ac1ae99b1","22_3_2024_7_24_37",3019303,"0.0-1285.0","hos","cable","hose",NA,NA,NA,14,1,"male",34,FALSE,FALSE,TRUE,"Correct"
"0exa33veem2u379",6.763,32,15,3,"CuePresentation","FALSE",5,NA,NA,"./images/supermarket.png","lower-right","13","65f2ba819e9cf67ac1ae99b1","22_3_2024_7_24_37",3029840,"0.0-1289.0","bedn","ball","bench",NA,NA,NA,6,0,"male",34,FALSE,FALSE,TRUE,"Misspelled Intrusion"
"0exa33veem2u379",9.133,32,15,4,"CuePresentation","TRUE",5,NA,NA,"./images/supermarket.png","lower-right","13","65f2ba819e9cf67ac1ae99b1","22_3_2024_7_24_37",3046399,"0.0-1293.0","can","kettle","candle",NA,NA,NA,4,1,"male",34,FALSE,FALSE,TRUE,"Correct"
"0exa33veem2u379",4.301,32,15,5,"CuePresentation","TRUE",5,NA,NA,"./images/supermarket.png","lower-right","13","65f2ba819e9cf67ac1ae99b1","22_3_2024_7_24_37",3054095,"0.0-1297.0","plu","thorn","plum",NA,NA,NA,8,1,"male",34,FALSE,FALSE,TRUE,"Correct"
"0exa33veem2u379",4.2,32,15,6,"CuePresentation","TRUE",5,NA,NA,"./images/ocean.jpg","middle-top","2","65f2ba819e9cf67ac1ae99b1","22_3_2024_7_24_37",3064823,"0.0-1301.0","mou","neck","mouth",NA,NA,NA,1,1,"male",34,FALSE,FALSE,TRUE,"Correct"
"0exa33veem2u379",5.234,32,15,7,"CuePresentation","TRUE",5,NA,NA,"./images/supermarket.png","lower-right","13","65f2ba819e9cf67ac1ae99b1","22_3_2024_7_24_37",3073655,"0.0-1305.0","amb","glass","amber",NA,NA,NA,9,1,"male",34,FALSE,FALSE,TRUE,"Correct"
"0exa33veem2u379",2.898,32,15,8,"CuePresentation","TRUE",5,NA,NA,"./images/supermarket.png","lower-right","13","65f2ba819e9cf67ac1ae99b1","22_3_2024_7_24_37",3080591,"0.0-1309.0","chi","bedpan","chin",NA,NA,NA,11,1,"male",34,FALSE,FALSE,TRUE,"Correct"
"0exa33veem2u379",3.585,32,15,9,"CuePresentation","TRUE",5,NA,NA,"./images/supermarket.png","lower-right","13","65f2ba819e9cf67ac1ae99b1","22_3_2024_7_24_37",3088631,"0.0-1313.0","tig","otter","tiger",NA,NA,NA,13,1,"male",34,FALSE,FALSE,TRUE,"Correct"
"0exa33veem2u379",4.209,32,15,10,"CuePresentation","TRUE",5,NA,NA,"./images/supermarket.png","lower-right","13","65f2ba819e9cf67ac1ae99b1","22_3_2024_7_24_37",3096711,"0.0-1317.0","scr","vent","screw",NA,NA,NA,5,1,"male",34,FALSE,FALSE,TRUE,"Correct"
"0exa33veem2u379",6.03,32,15,11,"CuePresentation","TRUE",5,NA,NA,"./images/supermarket.png","lower-right","13","65f2ba819e9cf67ac1ae99b1","22_3_2024_7_24_37",3108319,"0.0-1321.0","cav","coffee","caviar",NA,NA,NA,15,1,"male",34,FALSE,FALSE,TRUE,"Correct"
"0exa33veem2u379",7.004,32,15,12,"CuePresentation","TRUE",5,NA,NA,"./images/supermarket.png","lower-right","13","65f2ba819e9cf67ac1ae99b1","22_3_2024_7_24_37",3118824,"0.0-1325.0","fos","coal","fossil",NA,NA,NA,2,1,"male",34,FALSE,FALSE,TRUE,"Correct"
"0exa33veem2u379",3.237,32,15,13,"CuePresentation","TRUE",5,NA,NA,"./images/supermarket.png","lower-right","13","65f2ba819e9cf67ac1ae99b1","22_3_2024_7_24_37",3126984,"0.0-1329.0","chi","hummus","chips",NA,NA,NA,7,1,"male",34,FALSE,FALSE,TRUE,"Correct"
"0exa33veem2u379",4.757,32,15,14,"CuePresentation","TRUE",5,NA,NA,"./images/supermarket.png","lower-right","13","65f2ba819e9cf67ac1ae99b1","22_3_2024_7_24_37",3136303,"0.0-1333.0","bik","torso","bikini",NA,NA,NA,3,1,"male",34,FALSE,FALSE,TRUE,"Correct"
"0exa33veem2u379",5.537,32,15,15,"CuePresentation","TRUE",5,NA,NA,"./images/supermarket.png","lower-right","13","65f2ba819e9cf67ac1ae99b1","22_3_2024_7_24_37",3145431,"0.0-1337.0","mul","armor","mullet",NA,NA,NA,10,1,"male",34,FALSE,FALSE,TRUE,"Correct"
"0kl1umn7l94ogs9",8.62059999990463,32,30,1,"CuePresentation","FALSE",1,NA,NA,"./images/NoneContext.jpg","center","None","65f2bc0ff4540c03d672a222","15_2_2024_9_31_0",843722,"0.0-329.0","0","pesto","yolk",NA,NA,NA,11,0,"male",26,FALSE,FALSE,TRUE,"Omission"
"0kl1umn7l94ogs9",8.70289999961853,32,30,2,"CuePresentation","FALSE",1,NA,NA,"./images/NoneContext.jpg","center","None","65f2bc0ff4540c03d672a222","15_2_2024_9_31_0",859437,"0.0-333.0","o","eagle","iguana",NA,NA,NA,20,0,"male",26,FALSE,FALSE,TRUE,"unspecified"
"0kl1umn7l94ogs9",6.49990000009537,32,30,3,"CuePresentation","TRUE",1,NA,NA,"./images/NoneContext.jpg","center","None","65f2bc0ff4540c03d672a222","15_2_2024_9_31_0",871964,"0.0-337.0","daisy","moss","daisy",NA,NA,NA,1,1,"male",26,FALSE,FALSE,TRUE,"Correct"
"0kl1umn7l94ogs9",11.5418000001907,32,30,4,"CuePresentation","FALSE",1,NA,NA,"./images/NoneContext.jpg","center","None","65f2bc0ff4540c03d672a222","15_2_2024_9_31_0",889671,"0.0-341.0","","meat","pear",NA,NA,NA,4,0,"male",26,FALSE,FALSE,TRUE,"Omission"
"0kl1umn7l94ogs9",7.78389999961853,32,30,5,"CuePresentation","TRUE",1,NA,NA,"./images/NoneContext.jpg","center","None","65f2bc0ff4540c03d672a222","15_2_2024_9_31_0",904472,"0.0-345.0","ham","wedge","hammer",NA,NA,NA,25,1,"male",26,FALSE,FALSE,TRUE,"Correct"
"0kl1umn7l94ogs9",4.69230000019073,32,30,6,"CuePresentation","TRUE",1,NA,NA,"./images/NoneContext.jpg","center","None","65f2bc0ff4540c03d672a222","15_2_2024_9_31_0",916175,"0.0-349.0","cra","paint","crayon",NA,NA,NA,23,1,"male",26,FALSE,FALSE,TRUE,"Correct"
"0kl1umn7l94ogs9",7.74159999990463,32,30,7,"CuePresentation","FALSE",1,NA,NA,"./images/NoneContext.jpg","center","None","65f2bc0ff4540c03d672a222","15_2_2024_9_31_0",928438,"0.0-353.0","","binder","sheet",NA,NA,NA,8,0,"male",26,FALSE,FALSE,TRUE,"Omission"
"0kl1umn7l94ogs9",8.0302999997139,32,30,8,"CuePresentation","TRUE",1,NA,NA,"./images/NoneContext.jpg","center","None","65f2bc0ff4540c03d672a222","15_2_2024_9_31_0",943478,"0.0-357.0","bee","juicer","beet",NA,NA,NA,21,1,"male",26,FALSE,FALSE,TRUE,"Correct"
"0kl1umn7l94ogs9",10.9403000001907,32,30,9,"CuePresentation","FALSE",1,NA,NA,"./images/NoneContext.jpg","center","None","65f2bc0ff4540c03d672a222","15_2_2024_9_31_0",958224,"0.0-361.0","0","gyro","tripod",NA,NA,NA,28,0,"male",26,FALSE,FALSE,TRUE,"Omission"
"0kl1umn7l94ogs9",9.1085,32,30,10,"CuePresentation","FALSE",1,NA,NA,"./images/NoneContext.jpg","center","None","65f2bc0ff4540c03d672a222","15_2_2024_9_31_0",970906,"0.0-365.0","0","squid","kiwi",NA,NA,NA,17,0,"male",26,FALSE,FALSE,TRUE,"Omission"
"0kl1umn7l94ogs9",2.15390000009537,32,30,11,"CuePresentation","TRUE",1,NA,NA,"./images/NoneContext.jpg","center","None","65f2bc0ff4540c03d672a222","15_2_2024_9_31_0",977009,"0.0-369.0","bear","wolf","bear",NA,NA,NA,15,1,"male",26,FALSE,FALSE,TRUE,"Correct"
"0kl1umn7l94ogs9",9.1115,32,30,12,"CuePresentation","FALSE",1,NA,NA,"./images/NoneContext.jpg","center","None","65f2bc0ff4540c03d672a222","15_2_2024_9_31_0",990483,"0.0-373.0","0","grille","shrimp",NA,NA,NA,14,0,"male",26,FALSE,FALSE,TRUE,"Omission"
"0kl1umn7l94ogs9",7.19859999990463,32,30,13,"CuePresentation","FALSE",1,NA,NA,"./images/NoneContext.jpg","center","None","65f2bc0ff4540c03d672a222","15_2_2024_9_31_0",1001012,"0.0-377.0","0","shovel","cart",NA,NA,NA,3,0,"male",26,FALSE,FALSE,TRUE,"Omission"
"0kl1umn7l94ogs9",8.42380000019073,32,30,14,"CuePresentation","FALSE",1,NA,NA,"./images/NoneContext.jpg","center","None","65f2bc0ff4540c03d672a222","15_2_2024_9_31_0",1012674,"0.0-381.0","0","pencil","ribbon",NA,NA,NA,30,0,"male",26,FALSE,FALSE,TRUE,"Omission"
"0kl1umn7l94ogs9",2.36169999980926,32,30,15,"CuePresentation","TRUE",1,NA,NA,"./images/NoneContext.jpg","center","None","65f2bc0ff4540c03d672a222","15_2_2024_9_31_0",1019079,"0.0-385.0","bru","hair","brush",NA,NA,NA,7,1,"male",26,FALSE,FALSE,TRUE,"Correct"
"0kl1umn7l94ogs9",4.7855,32,30,16,"CuePresentation","TRUE",1,NA,NA,"./images/NoneContext.jpg","center","None","65f2bc0ff4540c03d672a222","15_2_2024_9_31_0",1027252,"0.0-389.0","lad","pole","ladder",NA,NA,NA,13,1,"male",26,FALSE,FALSE,TRUE,"Correct"
"0kl1umn7l94ogs9",7.5522999997139,32,30,17,"CuePresentation","TRUE",1,NA,NA,"./images/NoneContext.jpg","center","None","65f2bc0ff4540c03d672a222","15_2_2024_9_31_0",1038541,"0.0-393.0","crut","wheel","crutch",NA,NA,NA,9,1,"male",26,FALSE,FALSE,TRUE,"Correct"
"0kl1umn7l94ogs9",4.56190000009537,32,30,18,"CuePresentation","TRUE",1,NA,NA,"./images/NoneContext.jpg","center","None","65f2bc0ff4540c03d672a222","15_2_2024_9_31_0",1047420,"0.0-397.0","she","hole","shell",NA,NA,NA,2,1,"male",26,FALSE,FALSE,TRUE,"Correct"
"0kl1umn7l94ogs9",4.38190000009537,32,30,19,"CuePresentation","TRUE",1,NA,NA,"./images/NoneContext.jpg","center","None","65f2bc0ff4540c03d672a222","15_2_2024_9_31_0",1055200,"0.0-401.0","pota","cooker","potato",NA,NA,NA,16,1,"male",26,FALSE,FALSE,TRUE,"Correct"
"0kl1umn7l94ogs9",1.85939999961853,32,30,20,"CuePresentation","TRUE",1,NA,NA,"./images/NoneContext.jpg","center","None","65f2bc0ff4540c03d672a222","15_2_2024_9_31_0",1061353,"0.0-405.0","doll","girl","doll",NA,NA,NA,6,1,"male",26,FALSE,FALSE,TRUE,"Correct"
"0kl1umn7l94ogs9",7.544,32,30,21,"CuePresentation","FALSE",1,NA,NA,"./images/NoneContext.jpg","center","None","65f2bc0ff4540c03d672a222","15_2_2024_9_31_0",1072669,"0.0-409.0","0","plant","pliers",NA,NA,NA,24,0,"male",26,FALSE,FALSE,TRUE,"Omission"
"0kl1umn7l94ogs9",2.1347000002861,32,30,22,"CuePresentation","TRUE",1,NA,NA,"./images/NoneContext.jpg","center","None","65f2bc0ff4540c03d672a222","15_2_2024_9_31_0",1078252,"0.0-413.0","hoo","collar","hoodie",NA,NA,NA,27,1,"male",26,FALSE,FALSE,TRUE,"Correct"
"0kl1umn7l94ogs9",9.8462000002861,32,30,23,"CuePresentation","FALSE",1,NA,NA,"./images/NoneContext.jpg","center","None","65f2bc0ff4540c03d672a222","15_2_2024_9_31_0",1091437,"0.0-417.0","mea","melon","cereal",NA,NA,NA,5,0,"male",26,FALSE,FALSE,TRUE,"Misspelled Intrusion"
"0kl1umn7l94ogs9",4.90909999990463,32,30,24,"CuePresentation","TRUE",1,NA,NA,"./images/NoneContext.jpg","center","None","65f2bc0ff4540c03d672a222","15_2_2024_9_31_0",1100064,"0.0-421.0","tar","marker","target",NA,NA,NA,29,1,"male",26,FALSE,FALSE,TRUE,"Correct"
"0kl1umn7l94ogs9",8.74359999990463,32,30,25,"CuePresentation","TRUE",1,NA,NA,"./images/NoneContext.jpg","center","None","65f2bc0ff4540c03d672a222","15_2_2024_9_31_0",1112827,"0.0-425.0","cha","slime","chalk",NA,NA,NA,10,1,"male",26,FALSE,FALSE,TRUE,"Correct"
"0kl1umn7l94ogs9",2.83780000019074,32,30,26,"CuePresentation","FALSE",1,NA,NA,"./images/NoneContext.jpg","center","None","65f2bc0ff4540c03d672a222","15_2_2024_9_31_0",1119082,"0.0-429.0","gyr","jetski","rocket",NA,NA,NA,22,0,"male",26,FALSE,FALSE,TRUE,"Misspelled Intrusion"
"0kl1umn7l94ogs9",2.20260000038147,32,30,27,"CuePresentation","FALSE",1,NA,NA,"./images/NoneContext.jpg","center","None","65f2bc0ff4540c03d672a222","15_2_2024_9_31_0",1124579,"0.0-433.0","gyr","scuba","buoy",NA,NA,NA,26,0,"male",26,FALSE,FALSE,TRUE,"Misspelled Intrusion"
"0kl1umn7l94ogs9",7.294,32,30,28,"CuePresentation","TRUE",1,NA,NA,"./images/NoneContext.jpg","center","None","65f2bc0ff4540c03d672a222","15_2_2024_9_31_0",1137017,"0.0-437.0","flo","stem","flower",NA,NA,NA,19,1,"male",26,FALSE,FALSE,TRUE,"Correct"
"0kl1umn7l94ogs9",4.5717999997139,32,30,29,"CuePresentation","FALSE",1,NA,NA,"./images/NoneContext.jpg","center","None","65f2bc0ff4540c03d672a222","15_2_2024_9_31_0",1144894,"0.0-441.0","0","beaker","grape",NA,NA,NA,18,0,"male",26,FALSE,FALSE,TRUE,"Omission"
"0kl1umn7l94ogs9",7.20340000009537,32,30,30,"CuePresentation","FALSE",1,NA,NA,"./images/NoneContext.jpg","center","None","65f2bc0ff4540c03d672a222","15_2_2024_9_31_0",1155757,"0.0-445.0","0","whip","ladle",NA,NA,NA,12,0,"male",26,FALSE,FALSE,TRUE,"Omission"
"0kl1umn7l94ogs9",6.69490000009537,32,30,1,"CuePresentation","TRUE",2,NA,NA,"./images/lake.png","upper-left","4","65f2bc0ff4540c03d672a222","15_2_2024_9_31_0",1966524,"0.0-777.0","wri","glove","wrist",NA,NA,NA,10,1,"male",26,FALSE,FALSE,TRUE,"Correct"
"0kl1umn7l94ogs9",5.41180000019073,32,30,2,"CuePresentation","TRUE",2,NA,NA,"./images/winter.png","middle-right","26","65f2bc0ff4540c03d672a222","15_2_2024_9_31_0",1976378,"0.0-781.0","ott","tiger","otter",NA,NA,NA,1,1,"male",26,FALSE,FALSE,TRUE,"Correct"
"0kl1umn7l94ogs9",6.5382999997139,32,30,3,"CuePresentation","FALSE",2,NA,NA,"./images/winter.png","middle-right","26","65f2bc0ff4540c03d672a222","15_2_2024_9_31_0",1986698,"0.0-785.0","0","crepe","coat",NA,NA,NA,3,0,"male",26,FALSE,FALSE,TRUE,"Omission"
"0kl1umn7l94ogs9",9.6222000002861,32,30,4,"CuePresentation","FALSE",2,NA,NA,"./images/winter.png","middle-right","26","65f2bc0ff4540c03d672a222","15_2_2024_9_31_0",2000680,"0.0-789.0","0","snack","staple",NA,NA,NA,27,0,"male",26,FALSE,FALSE,TRUE,"Omission"
"0kl1umn7l94ogs9",8.51769999980927,32,30,5,"CuePresentation","FALSE",2,NA,NA,"./images/winter.png","middle-right","26","65f2bc0ff4540c03d672a222","15_2_2024_9_31_0",2012609,"0.0-793.0","jew","locket","drill",NA,NA,NA,2,0,"male",26,FALSE,FALSE,TRUE,"Intrusion"
"0kl1umn7l94ogs9",7.49630000019074,32,30,6,"CuePresentation","FALSE",2,NA,NA,"./images/winter.png","middle-right","26","65f2bc0ff4540c03d672a222","15_2_2024_9_31_0",2023993,"0.0-797.0","0","kayak","noose",NA,NA,NA,15,0,"male",26,FALSE,FALSE,TRUE,"Omission"
"0kl1umn7l94ogs9",8.17640000009537,32,30,7,"CuePresentation","FALSE",2,NA,NA,"./images/lake.png","upper-left","4","65f2bc0ff4540c03d672a222","15_2_2024_9_31_0",2035505,"0.0-801.0","cou","swan","puppy",NA,NA,NA,4,0,"male",26,FALSE,FALSE,TRUE,"Misspelled Intrusion"
"0kl1umn7l94ogs9",5.4077000002861,32,30,8,"CuePresentation","TRUE",2,NA,NA,"./images/winter.png","middle-right","26","65f2bc0ff4540c03d672a222","15_2_2024_9_31_0",2044693,"0.0-805.0","bea","jewel","bead",NA,NA,NA,18,1,"male",26,FALSE,FALSE,TRUE,"Correct"
"0kl1umn7l94ogs9",3.86040000009537,32,30,9,"CuePresentation","TRUE",2,NA,NA,"./images/winter.png","middle-right","26","65f2bc0ff4540c03d672a222","15_2_2024_9_31_0",2052131,"0.0-809.0","fis","snake","fish",NA,NA,NA,12,1,"male",26,FALSE,FALSE,TRUE,"Correct"
"0kl1umn7l94ogs9",8.42710000038147,32,30,10,"CuePresentation","TRUE",2,NA,NA,"./images/winter.png","middle-right","26","65f2bc0ff4540c03d672a222","15_2_2024_9_31_0",2064914,"0.0-813.0","bam","glue","bamboo",NA,NA,NA,23,1,"male",26,FALSE,FALSE,TRUE,"Correct"
"0kl1umn7l94ogs9",8.85809999990463,32,30,11,"CuePresentation","FALSE",2,NA,NA,"./images/winter.png","middle-right","26","65f2bc0ff4540c03d672a222","15_2_2024_9_31_0",2077210,"0.0-817.0","0","muff","couch",NA,NA,NA,6,0,"male",26,FALSE,FALSE,TRUE,"Omission"
"0kl1umn7l94ogs9",8.0915,32,30,12,"CuePresentation","TRUE",2,NA,NA,"./images/winter.png","middle-right","26","65f2bc0ff4540c03d672a222","15_2_2024_9_31_0",2089157,"0.0-821.0","fol","button","folder",NA,NA,NA,20,1,"male",26,FALSE,FALSE,TRUE,"Correct"
"0kl1umn7l94ogs9",9.582,32,30,13,"CuePresentation","TRUE",2,NA,NA,"./images/winter.png","middle-right","26","65f2bc0ff4540c03d672a222","15_2_2024_9_31_0",2102046,"0.0-825.0","ins","anklet","insole",NA,NA,NA,8,1,"male",26,FALSE,FALSE,TRUE,"Correct"
"0kl1umn7l94ogs9",5.0165,32,30,14,"CuePresentation","TRUE",2,NA,NA,"./images/winter.png","middle-right","26","65f2bc0ff4540c03d672a222","15_2_2024_9_31_0",2110835,"0.0-829.0","jui","radish","juice",NA,NA,NA,19,1,"male",26,FALSE,FALSE,TRUE,"Correct"
"0kl1umn7l94ogs9",6.17980000019073,32,30,15,"CuePresentation","TRUE",2,NA,NA,"./images/winter.png","middle-right","26","65f2bc0ff4540c03d672a222","15_2_2024_9_31_0",2120948,"0.0-833.0","don","tray","donut",NA,NA,NA,16,1,"male",26,FALSE,FALSE,TRUE,"Correct"
"0kl1umn7l94ogs9",6.66159999990463,32,30,16,"CuePresentation","TRUE",2,NA,NA,"./images/lake.png","upper-left","4","65f2bc0ff4540c03d672a222","15_2_2024_9_31_0",2131587,"0.0-837.0","car","syrup","carrot",NA,NA,NA,24,1,"male",26,FALSE,FALSE,TRUE,"Correct"
"0kl1umn7l94ogs9",3.09,32,30,17,"CuePresentation","TRUE",2,NA,NA,"./images/winter.png","middle-right","26","65f2bc0ff4540c03d672a222","15_2_2024_9_31_0",2138784,"0.0-841.0","bus","bird","bush",NA,NA,NA,13,1,"male",26,FALSE,FALSE,TRUE,"Correct"
"0kl1umn7l94ogs9",5.58959999990463,32,30,18,"CuePresentation","TRUE",2,NA,NA,"./images/lake.png","upper-left","4","65f2bc0ff4540c03d672a222","15_2_2024_9_31_0",2147633,"0.0-845.0","cab","hose","cable",NA,NA,NA,26,1,"male",26,FALSE,FALSE,TRUE,"Correct"
"0kl1umn7l94ogs9",7.09240000009537,32,30,19,"CuePresentation","FALSE",2,NA,NA,"./images/winter.png","middle-right","26","65f2bc0ff4540c03d672a222","15_2_2024_9_31_0",2158786,"0.0-849.0","0","riser","rose",NA,NA,NA,17,0,"male",26,FALSE,FALSE,TRUE,"Omission"
"0kl1umn7l94ogs9",7.1022000002861,32,30,20,"CuePresentation","TRUE",2,NA,NA,"./images/winter.png","middle-right","26","65f2bc0ff4540c03d672a222","15_2_2024_9_31_0",2170286,"0.0-853.0","stu","cane","stump",NA,NA,NA,29,1,"male",26,FALSE,FALSE,TRUE,"Correct"
"0kl1umn7l94ogs9",2.67159999990463,32,30,21,"CuePresentation","TRUE",2,NA,NA,"./images/winter.png","middle-right","26","65f2bc0ff4540c03d672a222","15_2_2024_9_31_0",2177046,"0.0-857.0","soda","eggnog","soda",NA,NA,NA,30,1,"male",26,FALSE,FALSE,TRUE,"Correct"
"0kl1umn7l94ogs9",4.60090000009537,32,30,22,"CuePresentation","TRUE",2,NA,NA,"./images/winter.png","middle-right","26","65f2bc0ff4540c03d672a222","15_2_2024_9_31_0",2185355,"0.0-861.0","coo","sundae","cookie",NA,NA,NA,11,1,"male",26,FALSE,FALSE,TRUE,"Correct"
"0kl1umn7l94ogs9",2.2687000002861,32,30,23,"CuePresentation","TRUE",2,NA,NA,"./images/winter.png","middle-right","26","65f2bc0ff4540c03d672a222","15_2_2024_9_31_0",2190986,"0.0-865.0","yar","thread","yarn",NA,NA,NA,5,1,"male",26,FALSE,FALSE,TRUE,"Correct"
"0kl1umn7l94ogs9",7.093,32,30,24,"CuePresentation","TRUE",2,NA,NA,"./images/winter.png","middle-right","26","65f2bc0ff4540c03d672a222","15_2_2024_9_31_0",2201443,"0.0-869.0","boa","chick","boar",NA,NA,NA,28,1,"male",26,FALSE,FALSE,TRUE,"Correct"
"0kl1umn7l94ogs9",7.2475,32,30,25,"CuePresentation","FALSE",2,NA,NA,"./images/winter.png","middle-right","26","65f2bc0ff4540c03d672a222","15_2_2024_9_31_0",2213037,"0.0-873.0","0","hotdog","gourd",NA,NA,NA,14,0,"male",26,FALSE,FALSE,TRUE,"Omission"
"0kl1umn7l94ogs9",7.84059999990463,32,30,26,"CuePresentation","FALSE",2,NA,NA,"./images/winter.png","middle-right","26","65f2bc0ff4540c03d672a222","15_2_2024_9_31_0",2224192,"0.0-877.0","0","flag","statue",NA,NA,NA,25,0,"male",26,FALSE,FALSE,TRUE,"Omission"
"0kl1umn7l94ogs9",7.65909999990463,32,30,27,"CuePresentation","TRUE",2,NA,NA,"./images/winter.png","middle-right","26","65f2bc0ff4540c03d672a222","15_2_2024_9_31_0",2235087,"0.0-881.0","web","cougar","webcam",NA,NA,NA,21,1,"male",26,FALSE,FALSE,TRUE,"Correct"
"0kl1umn7l94ogs9",9.25430000019074,32,30,28,"CuePresentation","FALSE",2,NA,NA,"./images/winter.png","middle-right","26","65f2bc0ff4540c03d672a222","15_2_2024_9_31_0",2247943,"0.0-885.0","boa","cobra","moose",NA,NA,NA,7,0,"male",26,FALSE,FALSE,TRUE,"Intrusion"
"0kl1umn7l94ogs9",6.59980000019073,32,30,29,"CuePresentation","TRUE",2,NA,NA,"./images/winter.png","middle-right","26","65f2bc0ff4540c03d672a222","15_2_2024_9_31_0",2258090,"0.0-889.0","lee","fondue","leek",NA,NA,NA,22,1,"male",26,FALSE,FALSE,TRUE,"Correct"
"0kl1umn7l94ogs9",5.6365,32,30,30,"CuePresentation","FALSE",2,NA,NA,"./images/winter.png","middle-right","26","65f2bc0ff4540c03d672a222","15_2_2024_9_31_0",2267143,"0.0-893.0","ham","mullet","armor",NA,NA,NA,9,0,"male",26,FALSE,FALSE,TRUE,"Intrusion"
"0kl1umn7l94ogs9",9.24780000019073,32,30,1,"CuePresentation","FALSE",3,NA,NA,"./images/ocean.jpg","middle-top","5","65f2bc0ff4540c03d672a222","15_2_2024_9_31_0",3030748,"0.0-1225.0","0","crank","magnet",NA,NA,NA,26,0,"male",26,FALSE,FALSE,TRUE,"Omission"
"0kl1umn7l94ogs9",3.154,32,30,2,"CuePresentation","TRUE",3,NA,NA,"./images/ocean.jpg","middle-top","5","65f2bc0ff4540c03d672a222","15_2_2024_9_31_0",3037209,"0.0-1229.0","bee","candy","beer",NA,NA,NA,30,1,"male",26,FALSE,FALSE,TRUE,"Correct"
"0kl1umn7l94ogs9",8.15289999961853,32,30,3,"CuePresentation","FALSE",3,NA,NA,"./images/beach.png","upper-right","25","65f2bc0ff4540c03d672a222","15_2_2024_9_31_0",3048475,"0.0-1233.0","car","bumper","flan",NA,NA,NA,24,0,"male",26,FALSE,FALSE,TRUE,"Intrusion"
"0kl1umn7l94ogs9",6.50040000009537,32,30,4,"CuePresentation","TRUE",3,NA,NA,"./images/beach.png","upper-right","25","65f2bc0ff4540c03d672a222","15_2_2024_9_31_0",3058409,"0.0-1237.0","tur","hyena","turtle",NA,NA,NA,28,1,"male",26,FALSE,FALSE,TRUE,"Correct"
"0kl1umn7l94ogs9",4.06790000009537,32,30,5,"CuePresentation","TRUE",3,NA,NA,"./images/beach.png","upper-right","25","65f2bc0ff4540c03d672a222","15_2_2024_9_31_0",3066316,"0.0-1241.0","ste","omelet","stew",NA,NA,NA,3,1,"male",26,FALSE,FALSE,TRUE,"Correct"
"0kl1umn7l94ogs9",8.8535,32,30,6,"CuePresentation","FALSE",3,NA,NA,"./images/beach.png","upper-right","25","65f2bc0ff4540c03d672a222","15_2_2024_9_31_0",3078199,"0.0-1245.0","0","sling","shower",NA,NA,NA,23,0,"male",26,FALSE,FALSE,TRUE,"Omission"
"0kl1umn7l94ogs9",5.07669999980927,32,30,7,"CuePresentation","TRUE",3,NA,NA,"./images/beach.png","upper-right","25","65f2bc0ff4540c03d672a222","15_2_2024_9_31_0",3086768,"0.0-1249.0","tru","boat","truck",NA,NA,NA,20,1,"male",26,FALSE,FALSE,TRUE,"Correct"
"0kl1umn7l94ogs9",1.89859999990463,32,30,8,"CuePresentation","TRUE",3,NA,NA,"./images/beach.png","upper-right","25","65f2bc0ff4540c03d672a222","15_2_2024_9_31_0",3091946,"0.0-1253.0","bik","torso","bikini",NA,NA,NA,15,1,"male",26,FALSE,FALSE,TRUE,"Correct"
"0kl1umn7l94ogs9",9.05460000038147,32,30,9,"CuePresentation","FALSE",3,NA,NA,"./images/beach.png","upper-right","25","65f2bc0ff4540c03d672a222","15_2_2024_9_31_0",3104194,"0.0-1257.0","dry","heater","drain",NA,NA,NA,22,0,"male",26,FALSE,FALSE,TRUE,"Intrusion"
"0kl1umn7l94ogs9",5.9512000002861,32,30,10,"CuePresentation","TRUE",3,NA,NA,"./images/beach.png","upper-right","25","65f2bc0ff4540c03d672a222","15_2_2024_9_31_0",3113550,"0.0-1261.0","bre","ginger","bread",NA,NA,NA,19,1,"male",26,FALSE,FALSE,TRUE,"Correct"
"0kl1umn7l94ogs9",8.082,32,30,11,"CuePresentation","TRUE",3,NA,NA,"./images/beach.png","upper-right","25","65f2bc0ff4540c03d672a222","15_2_2024_9_31_0",3125033,"0.0-1265.0","bla","gear","blazer",NA,NA,NA,17,1,"male",26,FALSE,FALSE,TRUE,"Correct"
"0kl1umn7l94ogs9",5.062,32,30,12,"CuePresentation","TRUE",3,NA,NA,"./images/beach.png","upper-right","25","65f2bc0ff4540c03d672a222","15_2_2024_9_31_0",3133564,"0.0-1269.0","bon","tulip","bonsai",NA,NA,NA,6,1,"male",26,FALSE,FALSE,TRUE,"Correct"
"0kl1umn7l94ogs9",4.734,32,30,13,"CuePresentation","TRUE",3,NA,NA,"./images/beach.png","upper-right","25","65f2bc0ff4540c03d672a222","15_2_2024_9_31_0",3141753,"0.0-1273.0","gla","amber","glass",NA,NA,NA,11,1,"male",26,FALSE,FALSE,TRUE,"Correct"
"0kl1umn7l94ogs9",9.5135,32,30,14,"CuePresentation","FALSE",3,NA,NA,"./images/beach.png","upper-right","25","65f2bc0ff4540c03d672a222","15_2_2024_9_31_0",3154707,"0.0-1277.0","0","belt","wrench",NA,NA,NA,8,0,"male",26,FALSE,FALSE,TRUE,"Omission"
"0kl1umn7l94ogs9",4.2207999997139,32,30,15,"CuePresentation","TRUE",3,NA,NA,"./images/beach.png","upper-right","25","65f2bc0ff4540c03d672a222","15_2_2024_9_31_0",3162205,"0.0-1281.0","val","needle","valve",NA,NA,NA,14,1,"male",26,FALSE,FALSE,TRUE,"Correct"
"0kl1umn7l94ogs9",6.7045,32,30,16,"CuePresentation","FALSE",3,NA,NA,"./images/beach.png","upper-right","25","65f2bc0ff4540c03d672a222","15_2_2024_9_31_0",3172041,"0.0-1285.0","0","coil","airbag",NA,NA,NA,16,0,"male",26,FALSE,FALSE,TRUE,"Omission"
"0kl1umn7l94ogs9",3.5247999997139,32,30,17,"CuePresentation","TRUE",3,NA,NA,"./images/beach.png","upper-right","25","65f2bc0ff4540c03d672a222","15_2_2024_9_31_0",3178709,"0.0-1289.0","sli","sink","slide",NA,NA,NA,1,1,"male",26,FALSE,FALSE,TRUE,"Correct"
"0kl1umn7l94ogs9",3.7625,32,30,18,"CuePresentation","TRUE",3,NA,NA,"./images/beach.png","upper-right","25","65f2bc0ff4540c03d672a222","15_2_2024_9_31_0",3185787,"0.0-1293.0","via","toilet","vial",NA,NA,NA,18,1,"male",26,FALSE,FALSE,TRUE,"Correct"
"0kl1umn7l94ogs9",7.419,32,30,19,"CuePresentation","FALSE",3,NA,NA,"./images/beach.png","upper-right","25","65f2bc0ff4540c03d672a222","15_2_2024_9_31_0",3198046,"0.0-1297.0","jum","bungee","chisel",NA,NA,NA,9,0,"male",26,FALSE,FALSE,TRUE,"Misspelled Intrusion"
"0kl1umn7l94ogs9",3.61630000019073,32,30,20,"CuePresentation","TRUE",3,NA,NA,"./images/beach.png","upper-right","25","65f2bc0ff4540c03d672a222","15_2_2024_9_31_0",3204996,"0.0-1301.0","dry","cooler","dryer",NA,NA,NA,13,1,"male",26,FALSE,FALSE,TRUE,"Correct"
"0kl1umn7l94ogs9",3.83659999990463,32,30,21,"CuePresentation","TRUE",3,NA,NA,"./images/beach.png","upper-right","25","65f2bc0ff4540c03d672a222","15_2_2024_9_31_0",3212305,"0.0-1305.0","loc","gate","lock",NA,NA,NA,29,1,"male",26,FALSE,FALSE,TRUE,"Correct"
"0kl1umn7l94ogs9",2.96540000009537,32,30,22,"CuePresentation","TRUE",3,NA,NA,"./images/beach.png","upper-right","25","65f2bc0ff4540c03d672a222","15_2_2024_9_31_0",3219138,"0.0-1309.0","scr","vent","screw",NA,NA,NA,25,1,"male",26,FALSE,FALSE,TRUE,"Correct"
"0kl1umn7l94ogs9",1.7272999997139,32,30,23,"CuePresentation","TRUE",3,NA,NA,"./images/beach.png","upper-right","25","65f2bc0ff4540c03d672a222","15_2_2024_9_31_0",3223888,"0.0-1313.0","cof","skull","coffin",NA,NA,NA,27,1,"male",26,FALSE,FALSE,TRUE,"Correct"
"0kl1umn7l94ogs9",6.77280000019073,32,30,24,"CuePresentation","FALSE",3,NA,NA,"./images/ocean.jpg","middle-top","5","65f2bc0ff4540c03d672a222","15_2_2024_9_31_0",3234019,"0.0-1317.0","0","zipper","pallet",NA,NA,NA,12,0,"male",26,FALSE,FALSE,TRUE,"Omission"
"0kl1umn7l94ogs9",3.623,32,30,25,"CuePresentation","TRUE",3,NA,NA,"./images/beach.png","upper-right","25","65f2bc0ff4540c03d672a222","15_2_2024_9_31_0",3240969,"0.0-1321.0","fau","pipe","faucet",NA,NA,NA,4,1,"male",26,FALSE,FALSE,TRUE,"Correct"
"0kl1umn7l94ogs9",7.12480000019074,32,30,26,"CuePresentation","TRUE",3,NA,NA,"./images/ocean.jpg","middle-top","5","65f2bc0ff4540c03d672a222","15_2_2024_9_31_0",3251200,"0.0-1325.0","loo","braid","loom",NA,NA,NA,7,1,"male",26,FALSE,FALSE,TRUE,"Correct"
"0kl1umn7l94ogs9",4.072,32,30,27,"CuePresentation","TRUE",3,NA,NA,"./images/beach.png","upper-right","25","65f2bc0ff4540c03d672a222","15_2_2024_9_31_0",3258722,"0.0-1329.0","fen","teepee","fence",NA,NA,NA,10,1,"male",26,FALSE,FALSE,TRUE,"Correct"
"0kl1umn7l94ogs9",8.10230000019073,32,30,28,"CuePresentation","FALSE",3,NA,NA,"./images/beach.png","upper-right","25","65f2bc0ff4540c03d672a222","15_2_2024_9_31_0",3270223,"0.0-1333.0","0","filter","prism",NA,NA,NA,2,0,"male",26,FALSE,FALSE,TRUE,"Omission"
"0kl1umn7l94ogs9",4.46940000009537,32,30,29,"CuePresentation","TRUE",3,NA,NA,"./images/ocean.jpg","middle-top","5","65f2bc0ff4540c03d672a222","15_2_2024_9_31_0",3278016,"0.0-1337.0","hor","bell","horn",NA,NA,NA,21,1,"male",26,FALSE,FALSE,TRUE,"Correct"
"0kl1umn7l94ogs9",1.69080000019073,32,30,30,"CuePresentation","TRUE",3,NA,NA,"./images/beach.png","upper-right","25","65f2bc0ff4540c03d672a222","15_2_2024_9_31_0",3283522,"0.0-1341.0","cur","lamb","curry",NA,NA,NA,5,1,"male",26,FALSE,FALSE,TRUE,"Correct"
"0kl1umn7l94ogs9",10.0271999998093,32,30,1,"CuePresentation","TRUE",4,NA,NA,"./images/mountain.png","middle-left","27","65f2bc0ff4540c03d672a222","15_2_2024_9_31_0",4063862,"0.0-1673.0","roller","paddle","roller",NA,NA,NA,24,1,"male",26,FALSE,FALSE,TRUE,"Correct"
"0kl1umn7l94ogs9",12.5071999998093,32,30,2,"CuePresentation","TRUE",4,NA,NA,"./images/mountain.png","middle-left","27","65f2bc0ff4540c03d672a222","15_2_2024_9_31_0",4081078,"0.0-1677.0","iro","wafer","iron",NA,NA,NA,13,1,"male",26,FALSE,FALSE,TRUE,"Correct"
"0kl1umn7l94ogs9",6.4602999997139,32,30,3,"CuePresentation","TRUE",4,NA,NA,"./images/mountain.png","middle-left","27","65f2bc0ff4540c03d672a222","15_2_2024_9_31_0",4091534,"0.0-1681.0","bee","sloth","beetle",NA,NA,NA,21,1,"male",26,FALSE,FALSE,TRUE,"Correct"
"0kl1umn7l94ogs9",9.966,32,30,4,"CuePresentation","TRUE",4,NA,NA,"./images/mountain.png","middle-left","27","65f2bc0ff4540c03d672a222","15_2_2024_9_31_0",4104897,"0.0-1685.0","qui","paper","quill",NA,NA,NA,17,1,"male",26,FALSE,FALSE,TRUE,"Correct"
"0kl1umn7l94ogs9",4.17269999980927,32,30,5,"CuePresentation","TRUE",4,NA,NA,"./images/mountain.png","middle-left","27","65f2bc0ff4540c03d672a222","15_2_2024_9_31_0",4112773,"0.0-1689.0","clo","desk","closet",NA,NA,NA,28,1,"male",26,FALSE,FALSE,TRUE,"Correct"
"0kl1umn7l94ogs9",2.32590000009537,32,30,6,"CuePresentation","TRUE",4,NA,NA,"./images/mountain.png","middle-left","27","65f2bc0ff4540c03d672a222","15_2_2024_9_31_0",4118249,"0.0-1693.0","ped","banjo","pedal",NA,NA,NA,8,1,"male",26,FALSE,FALSE,TRUE,"Correct"
"0kl1umn7l94ogs9",8.15340000009537,32,30,7,"CuePresentation","FALSE",4,NA,NA,"./images/mountain.png","middle-left","27","65f2bc0ff4540c03d672a222","15_2_2024_9_31_0",4129705,"0.0-1697.0","fes","coal","fossil",NA,NA,NA,2,0,"male",26,FALSE,FALSE,TRUE,"Misspelled Intrusion"
"0kl1umn7l94ogs9",4.034,32,30,8,"CuePresentation","TRUE",4,NA,NA,"./images/mountain.png","middle-left","27","65f2bc0ff4540c03d672a222","15_2_2024_9_31_0",4138221,"0.0-1701.0","pos","book","poster",NA,NA,NA,25,1,"male",26,FALSE,FALSE,TRUE,"Correct"
"0kl1umn7l94ogs9",15.3224000000954,32,30,9,"CuePresentation","FALSE",4,NA,NA,"./images/mountain.png","middle-left","27","65f2bc0ff4540c03d672a222","15_2_2024_9_31_0",4156936,"0.0-1705.0","0","goat","zebra",NA,NA,NA,6,0,"male",26,FALSE,FALSE,TRUE,"Omission"
"0kl1umn7l94ogs9",8.44169999980926,32,30,10,"CuePresentation","TRUE",4,NA,NA,"./images/mountain.png","middle-left","27","65f2bc0ff4540c03d672a222","15_2_2024_9_31_0",4168379,"0.0-1709.0","muff","dish","muffin",NA,NA,NA,9,1,"male",26,FALSE,FALSE,TRUE,"Correct"
"0kl1umn7l94ogs9",2.13940000009537,32,30,11,"CuePresentation","TRUE",4,NA,NA,"./images/mountain.png","middle-left","27","65f2bc0ff4540c03d672a222","15_2_2024_9_31_0",4175599,"0.0-1713.0","gol","tinsel","gold",NA,NA,NA,14,1,"male",26,FALSE,FALSE,TRUE,"Correct"
"0kl1umn7l94ogs9",11.7335,32,30,12,"CuePresentation","TRUE",4,NA,NA,"./images/mountain.png","middle-left","27","65f2bc0ff4540c03d672a222","15_2_2024_9_31_0",4190706,"0.0-1717.0","lav","rock","lava",NA,NA,NA,5,1,"male",26,FALSE,FALSE,TRUE,"Correct"
"0kl1umn7l94ogs9",5.4725,32,30,13,"CuePresentation","TRUE",4,NA,NA,"./images/mountain.png","middle-left","27","65f2bc0ff4540c03d672a222","15_2_2024_9_31_0",4199810,"0.0-1721.0","bow","butter","bowl",NA,NA,NA,15,1,"male",26,FALSE,FALSE,TRUE,"Correct"
"0kl1umn7l94ogs9",13.9488000001907,32,30,14,"CuePresentation","FALSE",4,NA,NA,"./images/park.png","middle-bottom","3","65f2bc0ff4540c03d672a222","15_2_2024_9_31_0",4217952,"0.0-1725.0","nuss","pastry","mussel",NA,NA,NA,12,0,"male",26,FALSE,FALSE,TRUE,"Misspelled Intrusion"
"0kl1umn7l94ogs9",5.51239999961853,32,30,15,"CuePresentation","TRUE",4,NA,NA,"./images/mountain.png","middle-left","27","65f2bc0ff4540c03d672a222","15_2_2024_9_31_0",4227190,"0.0-1729.0","cav","coffee","caviar",NA,NA,NA,20,1,"male",26,FALSE,FALSE,TRUE,"Correct"
"0kl1umn7l94ogs9",5.6607999997139,32,30,16,"CuePresentation","FALSE",4,NA,NA,"./images/mountain.png","middle-left","27","65f2bc0ff4540c03d672a222","15_2_2024_9_31_0",4237184,"0.0-1733.0","0","bowtie","sequin",NA,NA,NA,18,0,"male",26,FALSE,FALSE,TRUE,"Omission"
"0kl1umn7l94ogs9",10.2270999999046,32,30,17,"CuePresentation","FALSE",4,NA,NA,"./images/mountain.png","middle-left","27","65f2bc0ff4540c03d672a222","15_2_2024_9_31_0",4251052,"0.0-1737.0","0","bench","ball",NA,NA,NA,30,0,"male",26,FALSE,FALSE,TRUE,"Omission"
"0kl1umn7l94ogs9",4.89659999990463,32,30,18,"CuePresentation","TRUE",4,NA,NA,"./images/mountain.png","middle-left","27","65f2bc0ff4540c03d672a222","15_2_2024_9_31_0",4259667,"0.0-1741.0","fru","mint","fruit",NA,NA,NA,29,1,"male",26,FALSE,FALSE,TRUE,"Correct"
"0kl1umn7l94ogs9",7.55519999980926,32,30,19,"CuePresentation","FALSE",4,NA,NA,"./images/park.png","middle-bottom","3","65f2bc0ff4540c03d672a222","15_2_2024_9_31_0",4271598,"0.0-1745.0","0","pulley","sheath",NA,NA,NA,22,0,"male",26,FALSE,FALSE,TRUE,"Omission"
"0kl1umn7l94ogs9",12.6844000000954,32,30,20,"CuePresentation","FALSE",4,NA,NA,"./images/mountain.png","middle-left","27","65f2bc0ff4540c03d672a222","15_2_2024_9_31_0",4287328,"0.0-1749.0","0","float","sail",NA,NA,NA,27,0,"male",26,FALSE,FALSE,TRUE,"Omission"
"0kl1umn7l94ogs9",3.774,32,30,21,"CuePresentation","TRUE",4,NA,NA,"./images/mountain.png","middle-left","27","65f2bc0ff4540c03d672a222","15_2_2024_9_31_0",4294074,"0.0-1753.0","fud","pepper","fudge",NA,NA,NA,19,1,"male",26,FALSE,FALSE,TRUE,"Correct"
"0kl1umn7l94ogs9",2.783,32,30,22,"CuePresentation","TRUE",4,NA,NA,"./images/mountain.png","middle-left","27","65f2bc0ff4540c03d672a222","15_2_2024_9_31_0",4300806,"0.0-1757.0","kne","brace","knee",NA,NA,NA,7,1,"male",26,FALSE,FALSE,TRUE,"Correct"
"0kl1umn7l94ogs9",6.74940000009537,32,30,23,"CuePresentation","TRUE",4,NA,NA,"./images/mountain.png","middle-left","27","65f2bc0ff4540c03d672a222","15_2_2024_9_31_0",4311194,"0.0-1761.0","pan","kimono","pants",NA,NA,NA,16,1,"male",26,FALSE,FALSE,TRUE,"Correct"
"0kl1umn7l94ogs9",5.66380000019073,32,30,24,"CuePresentation","TRUE",4,NA,NA,"./images/park.png","middle-bottom","3","65f2bc0ff4540c03d672a222","15_2_2024_9_31_0",4320331,"0.0-1765.0","pas","cashew","pasta",NA,NA,NA,11,1,"male",26,FALSE,FALSE,TRUE,"Correct"
"0kl1umn7l94ogs9",7.3,32,30,25,"CuePresentation","FALSE",4,NA,NA,"./images/mountain.png","middle-left","27","65f2bc0ff4540c03d672a222","15_2_2024_9_31_0",4330756,"0.0-1769.0","goa","donkey","robot",NA,NA,NA,1,0,"male",26,FALSE,FALSE,TRUE,"Intrusion"
"0kl1umn7l94ogs9",3.03819999980927,32,30,26,"CuePresentation","TRUE",4,NA,NA,"./images/mountain.png","middle-left","27","65f2bc0ff4540c03d672a222","15_2_2024_9_31_0",4338030,"0.0-1773.0","cro","monkey","crow",NA,NA,NA,10,1,"male",26,FALSE,FALSE,TRUE,"Correct"
"0kl1umn7l94ogs9",3.777,32,30,27,"CuePresentation","TRUE",4,NA,NA,"./images/mountain.png","middle-left","27","65f2bc0ff4540c03d672a222","15_2_2024_9_31_0",4345242,"0.0-1777.0","mot","spider","moth",NA,NA,NA,3,1,"male",26,FALSE,FALSE,TRUE,"Correct"
"0kl1umn7l94ogs9",4.15080000019073,32,30,28,"CuePresentation","TRUE",4,NA,NA,"./images/mountain.png","middle-left","27","65f2bc0ff4540c03d672a222","15_2_2024_9_31_0",4352718,"0.0-1781.0","ste","screen","stereo",NA,NA,NA,26,1,"male",26,FALSE,FALSE,TRUE,"Correct"
"0kl1umn7l94ogs9",4.57869999980927,32,30,29,"CuePresentation","TRUE",4,NA,NA,"./images/mountain.png","middle-left","27","65f2bc0ff4540c03d672a222","15_2_2024_9_31_0",4361254,"0.0-1785.0","buc","puddle","bucket",NA,NA,NA,4,1,"male",26,FALSE,FALSE,TRUE,"Correct"
"0kl1umn7l94ogs9",5.22040000009537,32,30,30,"CuePresentation","TRUE",4,NA,NA,"./images/mountain.png","middle-left","27","65f2bc0ff4540c03d672a222","15_2_2024_9_31_0",4370553,"0.0-1789.0","mou","neck","mouth",NA,NA,NA,23,1,"male",26,FALSE,FALSE,TRUE,"Correct"
"0zngzfecl0j4gbr",8.09,32,15,1,"CuePresentation","FALSE",1,NA,NA,"./images/NoneContext.jpg","center","None","65f2ba819e9cf67ac1ae99b1","17_3_2024_12_25_38",514406,"0.0-209.0","0","chili","sushi",NA,NA,NA,8,0,"female",36,FALSE,FALSE,TRUE,"Omission"
"0zngzfecl0j4gbr",4.59019999999926,32,15,2,"CuePresentation","FALSE",1,NA,NA,"./images/NoneContext.jpg","center","None","65f2ba819e9cf67ac1ae99b1","17_3_2024_12_25_38",522514,"0.0-213.0","0","flask","cigar",NA,NA,NA,13,0,"female",36,FALSE,FALSE,TRUE,"Omission"
"0zngzfecl0j4gbr",3.92759999999963,32,15,3,"CuePresentation","TRUE",1,NA,NA,"./images/NoneContext.jpg","center","None","65f2ba819e9cf67ac1ae99b1","17_3_2024_12_25_38",531018,"0.0-217.0","orchid","vase","orchid",NA,NA,NA,12,1,"female",36,FALSE,FALSE,TRUE,"Correct"
"0zngzfecl0j4gbr",3.824,32,15,4,"CuePresentation","TRUE",1,NA,NA,"./images/NoneContext.jpg","center","None","65f2ba819e9cf67ac1ae99b1","17_3_2024_12_25_38",540378,"0.0-221.0","slide","sink","slide",NA,NA,NA,14,1,"female",36,FALSE,FALSE,TRUE,"Correct"
"0zngzfecl0j4gbr",3.553,32,15,5,"CuePresentation","TRUE",1,NA,NA,"./images/NoneContext.jpg","center","None","65f2ba819e9cf67ac1ae99b1","17_3_2024_12_25_38",548122,"0.0-225.0","flower","stem","flower",NA,NA,NA,15,1,"female",36,FALSE,FALSE,TRUE,"Correct"
"0zngzfecl0j4gbr",1.0755,32,15,6,"CuePresentation","TRUE",1,NA,NA,"./images/NoneContext.jpg","center","None","65f2ba819e9cf67ac1ae99b1","17_3_2024_12_25_38",553229,"0.0-229.0","doll","girl","doll",NA,NA,NA,5,1,"female",36,FALSE,FALSE,TRUE,"Correct"
"0zngzfecl0j4gbr",2.57489999999851,32,15,7,"CuePresentation","FALSE",1,NA,NA,"./images/NoneContext.jpg","center","None","65f2ba819e9cf67ac1ae99b1","17_3_2024_12_25_38",559637,"0.0-233.0","finger","arrow","thumb",NA,NA,NA,11,0,"female",36,FALSE,FALSE,TRUE,"Intrusion"
"0zngzfecl0j4gbr",3.51060000000149,32,15,8,"CuePresentation","FALSE",1,NA,NA,"./images/NoneContext.jpg","center","None","65f2ba819e9cf67ac1ae99b1","17_3_2024_12_25_38",569779,"0.0-237.0","0","loom","braid",NA,NA,NA,3,0,"female",36,FALSE,FALSE,TRUE,"Omission"
"0zngzfecl0j4gbr",5.744,32,15,9,"CuePresentation","FALSE",1,NA,NA,"./images/NoneContext.jpg","center","None","65f2ba819e9cf67ac1ae99b1","17_3_2024_12_25_38",579542,"0.0-241.0","0","armor","mullet",NA,NA,NA,2,0,"female",36,FALSE,FALSE,TRUE,"Omission"
"0zngzfecl0j4gbr",2.23340000000037,32,15,10,"CuePresentation","TRUE",1,NA,NA,"./images/NoneContext.jpg","center","None","65f2ba819e9cf67ac1ae99b1","17_3_2024_12_25_38",585824,"0.0-245.0","gravy","banana","gravy",NA,NA,NA,1,1,"female",36,FALSE,FALSE,TRUE,"Correct"
"0zngzfecl0j4gbr",4.41240000000037,32,15,11,"CuePresentation","FALSE",1,NA,NA,"./images/NoneContext.jpg","center","None","65f2ba819e9cf67ac1ae99b1","17_3_2024_12_25_38",594481,"0.0-249.0","0","lion","skunk",NA,NA,NA,7,0,"female",36,FALSE,FALSE,TRUE,"Omission"
"0zngzfecl0j4gbr",6.70229999999888,32,15,12,"CuePresentation","FALSE",1,NA,NA,"./images/NoneContext.jpg","center","None","65f2ba819e9cf67ac1ae99b1","17_3_2024_12_25_38",604694,"0.0-253.0","","juice","radish",NA,NA,NA,9,0,"female",36,FALSE,FALSE,TRUE,"Omission"
"0zngzfecl0j4gbr",6.13819999999926,32,15,13,"CuePresentation","FALSE",1,NA,NA,"./images/NoneContext.jpg","center","None","65f2ba819e9cf67ac1ae99b1","17_3_2024_12_25_38",613242,"0.0-257.0","chop","basil","peeler",NA,NA,NA,10,0,"female",36,FALSE,FALSE,TRUE,"Intrusion"
"0zngzfecl0j4gbr",3.15779999999888,32,15,14,"CuePresentation","TRUE",1,NA,NA,"./images/NoneContext.jpg","center","None","65f2ba819e9cf67ac1ae99b1","17_3_2024_12_25_38",620795,"0.0-261.0","beard","cloak","beard",NA,NA,NA,6,1,"female",36,FALSE,FALSE,TRUE,"Correct"
"0zngzfecl0j4gbr",4.95069999999926,32,15,15,"CuePresentation","FALSE",1,NA,NA,"./images/NoneContext.jpg","center","None","65f2ba819e9cf67ac1ae99b1","17_3_2024_12_25_38",630023,"0.0-265.0","0","bowtie","sequin",NA,NA,NA,4,0,"female",36,FALSE,FALSE,TRUE,"Omission"
"0zngzfecl0j4gbr",4.94360000000149,32,15,1,"CuePresentation","FALSE",2,NA,NA,"./images/lake.png","upper-left","13","65f2ba819e9cf67ac1ae99b1","17_3_2024_12_25_38",1112166,"0.0-477.0","0","bone","tongue",NA,NA,NA,7,0,"female",36,FALSE,FALSE,TRUE,"Omission"
"0zngzfecl0j4gbr",3.738,32,15,2,"CuePresentation","TRUE",2,NA,NA,"./images/lake.png","upper-left","13","65f2ba819e9cf67ac1ae99b1","17_3_2024_12_25_38",1119789,"0.0-481.0","chin","bedpan","chin",NA,NA,NA,11,1,"female",36,FALSE,FALSE,TRUE,"Correct"
"0zngzfecl0j4gbr",3.39090000000037,32,15,3,"CuePresentation","FALSE",2,NA,NA,"./images/beach.png","upper-right","2","65f2ba819e9cf67ac1ae99b1","17_3_2024_12_25_38",1127714,"0.0-485.0","tram","subway","taxi",NA,NA,NA,8,0,"female",36,FALSE,FALSE,TRUE,"Intrusion"
"0zngzfecl0j4gbr",3.73709999999963,32,15,4,"CuePresentation","TRUE",2,NA,NA,"./images/lake.png","upper-left","13","65f2ba819e9cf67ac1ae99b1","17_3_2024_12_25_38",1137450,"0.0-489.0","straw","towel","straw",NA,NA,NA,15,1,"female",36,FALSE,FALSE,TRUE,"Correct"
"0zngzfecl0j4gbr",2.42470000000112,32,15,5,"CuePresentation","TRUE",2,NA,NA,"./images/lake.png","upper-left","13","65f2ba819e9cf67ac1ae99b1","17_3_2024_12_25_38",1144511,"0.0-493.0","pasta","cashew","pasta",NA,NA,NA,3,1,"female",36,FALSE,FALSE,TRUE,"Correct"
"0zngzfecl0j4gbr",3.01790000000037,32,15,6,"CuePresentation","FALSE",2,NA,NA,"./images/lake.png","upper-left","13","65f2ba819e9cf67ac1ae99b1","17_3_2024_12_25_38",1151866,"0.0-497.0","hole","valve","needle",NA,NA,NA,10,0,"female",36,FALSE,FALSE,TRUE,"Intrusion"
"0zngzfecl0j4gbr",10.1737999999989,32,15,7,"CuePresentation","FALSE",2,NA,NA,"./images/lake.png","upper-left","13","65f2ba819e9cf67ac1ae99b1","17_3_2024_12_25_38",1165768,"0.0-501.0","broth","shrimp","grille",NA,NA,NA,6,0,"female",36,FALSE,FALSE,TRUE,"Intrusion"
"0zngzfecl0j4gbr",1.78490000000037,32,15,8,"CuePresentation","TRUE",2,NA,NA,"./images/lake.png","upper-left","13","65f2ba819e9cf67ac1ae99b1","17_3_2024_12_25_38",1173779,"0.0-505.0","tablet","table","tablet",NA,NA,NA,5,1,"female",36,FALSE,FALSE,TRUE,"Correct"
"0zngzfecl0j4gbr",12.4029000000004,32,15,9,"CuePresentation","FALSE",2,NA,NA,"./images/lake.png","upper-left","13","65f2ba819e9cf67ac1ae99b1","17_3_2024_12_25_38",1190648,"0.0-509.0","0","quilt","beanie",NA,NA,NA,14,0,"female",36,FALSE,FALSE,TRUE,"Omission"
"0zngzfecl0j4gbr",10.1855,32,15,10,"CuePresentation","FALSE",2,NA,NA,"./images/lake.png","upper-left","13","65f2ba819e9cf67ac1ae99b1","17_3_2024_12_25_38",1204022,"0.0-513.0","helmet","shield","crown",NA,NA,NA,9,0,"female",36,FALSE,FALSE,TRUE,"Intrusion"
"0zngzfecl0j4gbr",7.24890000000037,32,15,11,"CuePresentation","FALSE",2,NA,NA,"./images/lake.png","upper-left","13","65f2ba819e9cf67ac1ae99b1","17_3_2024_12_25_38",1215519,"0.0-517.0","dea","ladle","whip",NA,NA,NA,12,0,"female",36,FALSE,FALSE,TRUE,"Intrusion"
"0zngzfecl0j4gbr",3.45690000000037,32,15,12,"CuePresentation","TRUE",2,NA,NA,"./images/beach.png","upper-right","2","65f2ba819e9cf67ac1ae99b1","17_3_2024_12_25_38",1225995,"0.0-521.0","shell","hole","shell",NA,NA,NA,13,1,"female",36,FALSE,FALSE,TRUE,"Correct"
"0zngzfecl0j4gbr",2.38159999999963,32,15,13,"CuePresentation","FALSE",2,NA,NA,"./images/lake.png","upper-left","13","65f2ba819e9cf67ac1ae99b1","17_3_2024_12_25_38",1232889,"0.0-525.0","shirt","jersey","badge",NA,NA,NA,1,0,"female",36,FALSE,FALSE,TRUE,"Intrusion"
"0zngzfecl0j4gbr",17.8852000000011,32,15,14,"CuePresentation","FALSE",2,NA,NA,"./images/lake.png","upper-left","13","65f2ba819e9cf67ac1ae99b1","17_3_2024_12_25_38",1254802,"0.0-529.0","0","iguana","eagle",NA,NA,NA,2,0,"female",36,FALSE,FALSE,TRUE,"Omission"
"0zngzfecl0j4gbr",6.99479999999888,32,15,15,"CuePresentation","FALSE",2,NA,NA,"./images/lake.png","upper-left","13","65f2ba819e9cf67ac1ae99b1","17_3_2024_12_25_38",1264975,"0.0-533.0","food","tongs","cake",NA,NA,NA,4,0,"female",36,FALSE,FALSE,TRUE,"Intrusion"
"0zngzfecl0j4gbr",3.99110000000149,32,15,1,"CuePresentation","TRUE",3,NA,NA,"./images/park.png","middle-bottom","4","65f2ba819e9cf67ac1ae99b1","17_3_2024_12_25_38",1732658,"0.0-745.0","coat","crepe","coat",NA,NA,NA,13,1,"female",36,FALSE,FALSE,TRUE,"Correct"
"0zngzfecl0j4gbr",1.87010000000149,32,15,2,"CuePresentation","TRUE",3,NA,NA,"./images/sunset.png","lower-left","11","65f2ba819e9cf67ac1ae99b1","17_3_2024_12_25_38",1738652,"0.0-749.0","wallet","drawer","wallet",NA,NA,NA,14,1,"female",36,FALSE,FALSE,TRUE,"Correct"
"0zngzfecl0j4gbr",3.25380000000075,32,15,3,"CuePresentation","TRUE",3,NA,NA,"./images/sunset.png","lower-left","11","65f2ba819e9cf67ac1ae99b1","17_3_2024_12_25_38",1746695,"0.0-753.0","leech","snail","leech",NA,NA,NA,12,1,"female",36,FALSE,FALSE,TRUE,"Correct"
"0zngzfecl0j4gbr",1.46380000000074,32,15,4,"CuePresentation","TRUE",3,NA,NA,"./images/park.png","middle-bottom","4","65f2ba819e9cf67ac1ae99b1","17_3_2024_12_25_38",1751795,"0.0-757.0","wing","swing","wing",NA,NA,NA,3,1,"female",36,FALSE,FALSE,TRUE,"Correct"
"0zngzfecl0j4gbr",3.18640000000037,32,15,5,"CuePresentation","FALSE",3,NA,NA,"./images/sunset.png","lower-left","11","65f2ba819e9cf67ac1ae99b1","17_3_2024_12_25_38",1759563,"0.0-761.0","0","clasp","shorts",NA,NA,NA,7,0,"female",36,FALSE,FALSE,TRUE,"Omission"
"0zngzfecl0j4gbr",3.70719999999926,32,15,6,"CuePresentation","FALSE",3,NA,NA,"./images/sunset.png","lower-left","11","65f2ba819e9cf67ac1ae99b1","17_3_2024_12_25_38",1766515,"0.0-765.0","soup","okra","almond",NA,NA,NA,2,0,"female",36,FALSE,FALSE,TRUE,"Intrusion"
"0zngzfecl0j4gbr",3.29659999999963,32,15,7,"CuePresentation","TRUE",3,NA,NA,"./images/sunset.png","lower-left","11","65f2ba819e9cf67ac1ae99b1","17_3_2024_12_25_38",1775121,"0.0-769.0","salami","corn","salami",NA,NA,NA,8,1,"female",36,FALSE,FALSE,TRUE,"Correct"
"0zngzfecl0j4gbr",2.68259999999963,32,15,8,"CuePresentation","FALSE",3,NA,NA,"./images/sunset.png","lower-left","11","65f2ba819e9cf67ac1ae99b1","17_3_2024_12_25_38",1782079,"0.0-773.0","0","scarf","knot",NA,NA,NA,11,0,"female",36,FALSE,FALSE,TRUE,"Omission"
"0zngzfecl0j4gbr",6.01280000000074,32,15,9,"CuePresentation","FALSE",3,NA,NA,"./images/sunset.png","lower-left","11","65f2ba819e9cf67ac1ae99b1","17_3_2024_12_25_38",1791295,"0.0-777.0","okra","soup","flour",NA,NA,NA,9,0,"female",36,FALSE,FALSE,TRUE,"Intrusion"
"0zngzfecl0j4gbr",4.06840000000037,32,15,10,"CuePresentation","FALSE",3,NA,NA,"./images/sunset.png","lower-left","11","65f2ba819e9cf67ac1ae99b1","17_3_2024_12_25_38",1798964,"0.0-781.0","0","pesto","yolk",NA,NA,NA,1,0,"female",36,FALSE,FALSE,TRUE,"Omission"
"0zngzfecl0j4gbr",5.30519999999925,32,15,11,"CuePresentation","FALSE",3,NA,NA,"./images/sunset.png","lower-left","11","65f2ba819e9cf67ac1ae99b1","17_3_2024_12_25_38",1807580,"0.0-785.0","peasant","duck","beaver",NA,NA,NA,6,0,"female",36,FALSE,FALSE,TRUE,"Intrusion"
"0zngzfecl0j4gbr",3.5425,32,15,12,"CuePresentation","TRUE",3,NA,NA,"./images/park.png","middle-bottom","4","65f2ba819e9cf67ac1ae99b1","17_3_2024_12_25_38",1815167,"0.0-789.0","skull","coffin","skull",NA,NA,NA,10,1,"female",36,FALSE,FALSE,TRUE,"Correct"
"0zngzfecl0j4gbr",3.00759999999963,32,15,13,"CuePresentation","FALSE",3,NA,NA,"./images/sunset.png","lower-left","11","65f2ba819e9cf67ac1ae99b1","17_3_2024_12_25_38",1822562,"0.0-793.0","0","helmet","sock",NA,NA,NA,4,0,"female",36,FALSE,FALSE,TRUE,"Omission"
"0zngzfecl0j4gbr",2.535,32,15,14,"CuePresentation","TRUE",3,NA,NA,"./images/park.png","middle-bottom","4","65f2ba819e9cf67ac1ae99b1","17_3_2024_12_25_38",1828324,"0.0-797.0","tomato","taco","tomato",NA,NA,NA,15,1,"female",36,FALSE,FALSE,TRUE,"Correct"
