"X","rt","stimulus","key_press","ListLength","Trial_index","Phase","correct","ExperimentalPhase","Block","word1","word2","save","date","subject_id","trial_type","trial_index","time_elapsed","internal_node_id","response","cue","target","SequenceLength","sequence","letterSeen","queriedPosition","Stimulus_type","TrialType","timeMs","timeMin","score","correct_01","validTrials","validID","W2VWordPairsSim","SimBins","Error_type"
150,4226.39999985695,"<h1>sheath</h1><br><br><br> Please press space as soon as you recall the target.",32,30,1,"CuePresentation",FALSE,"True",1,"","","True","29_8_2023_11_35_35","0assan0nym4bqrq","html-keyboard-response",329,643698,"0.0-329.0","0","sheath","knife",NA,NA,NA,5,NA,NA,NA,NA,NA,0,"True","False",0.735375776651981,4,"Omission"
152,10179.5999999046,"<h1>earwig</h1><br><br><br> Please press space as soon as you recall the target.",32,30,2,"CuePresentation",FALSE,"True",1,"","","True","29_8_2023_11_35_35","0assan0nym4bqrq","html-keyboard-response",333,657779,"0.0-333.0","0","earwig","walnut",NA,NA,NA,7,NA,NA,NA,NA,NA,0,"True","False",0.242173377562161,2,"Omission"
154,12688.5999999046,"<h1>lamp</h1><br><br><br> Please press space as soon as you recall the target.",32,30,3,"CuePresentation",FALSE,"True",1,"","","True","29_8_2023_11_35_35","0assan0nym4bqrq","html-keyboard-response",337,674193,"0.0-337.0","head","lamp","candle",NA,NA,NA,22,NA,NA,NA,NA,NA,0,"False","False",0.698749663319853,4,"Intrusion"
156,4736.5,"<h1>sheet</h1><br><br><br> Please press space as soon as you recall the target.",32,30,4,"CuePresentation",FALSE,"True",1,"","","True","29_8_2023_11_35_35","0assan0nym4bqrq","html-keyboard-response",341,682545,"0.0-341.0","0","sheet","suit",NA,NA,NA,4,NA,NA,NA,NA,NA,0,"True","False",0.153411380957624,1,"Omission"
158,8928.70000004768,"<h1>bumper</h1><br><br><br> Please press space as soon as you recall the target.",32,30,5,"CuePresentation",FALSE,"True",1,"","","True","29_8_2023_11_35_35","0assan0nym4bqrq","html-keyboard-response",345,695160,"0.0-345.0","car","bumper","tank",NA,NA,NA,17,NA,NA,NA,NA,NA,0,"False","False",0.337314081016891,2,"Intrusion"
160,11717.4000000954,"<h1>moth</h1><br><br><br> Please press space as soon as you recall the target.",32,30,6,"CuePresentation",FALSE,"True",1,"","","True","29_8_2023_11_35_35","0assan0nym4bqrq","html-keyboard-response",349,710716,"0.0-349.0","0","moth","fungus",NA,NA,NA,9,NA,NA,NA,NA,NA,0,"True","False",0.421186232744235,3,"Omission"
162,10255.3000001907,"<h1>girl</h1><br><br><br> Please press space as soon as you recall the target.",32,30,7,"CuePresentation",FALSE,"True",1,"","","True","29_8_2023_11_35_35","0assan0nym4bqrq","html-keyboard-response",353,723826,"0.0-353.0","0","girl","chick",NA,NA,NA,18,NA,NA,NA,NA,NA,0,"False","False",0.624724496623479,4,"Omission"
164,6208.89999985695,"<h1>tape</h1><br><br><br> Please press space as soon as you recall the target.",32,30,8,"CuePresentation",FALSE,"True",1,"","","True","29_8_2023_11_35_35","0assan0nym4bqrq","html-keyboard-response",357,732984,"0.0-357.0","earwig","tape","wire",NA,NA,NA,27,NA,NA,NA,NA,NA,0,"False","False",0.501096990479819,3,"Intrusion"
166,8186.20000004768,"<h1>teabag</h1><br><br><br> Please press space as soon as you recall the target.",32,30,9,"CuePresentation",FALSE,"True",1,"","","True","29_8_2023_11_35_35","0assan0nym4bqrq","html-keyboard-response",361,745676,"0.0-361.0","0","teabag","coffee",NA,NA,NA,2,NA,NA,NA,NA,NA,0,"True","False",0.806588166583034,5,"Omission"
168,2250,"<h1>knee</h1><br><br><br> Please press space as soon as you recall the target.",32,30,10,"CuePresentation",TRUE,"True",1,"","","True","29_8_2023_11_35_35","0assan0nym4bqrq","html-keyboard-response",365,750911,"0.0-365.0","wrist","knee","wrist",NA,NA,NA,6,NA,NA,NA,NA,NA,1,"False","False",0.669356171840164,4,"Correct"
260,3266.29999995232,"<h1>parrot</h1><br><br><br> Please press space as soon as you recall the target.",32,10,1,"CuePresentation",TRUE,"True",2,"","","True","29_8_2023_11_35_35","0assan0nym4bqrq","html-keyboard-response",537,1073987,"0.0-537.0","turtle","parrot","turtle",NA,NA,NA,8,NA,NA,NA,NA,NA,1,"False","False",0.65206421477411,4,"Correct"
262,2069.79999995232,"<h1>thumb</h1><br><br><br> Please press space as soon as you recall the target.",32,10,2,"CuePresentation",TRUE,"True",2,"","","True","29_8_2023_11_35_35","0assan0nym4bqrq","html-keyboard-response",541,1082692,"0.0-541.0","anklet","thumb","anklet",NA,NA,NA,6,NA,NA,NA,NA,NA,1,"False","False",0.47748479244258,3,"Correct"
264,2798.79999995232,"<h1>prune</h1><br><br><br> Please press space as soon as you recall the target.",32,10,3,"CuePresentation",TRUE,"True",2,"","","True","29_8_2023_11_35_35","0assan0nym4bqrq","html-keyboard-response",545,1088947,"0.0-545.0","thorn","prune","thorn",NA,NA,NA,3,NA,NA,NA,NA,NA,1,"False","False",0.999999978936332,5,"Correct"
266,2188.09999990463,"<h1>eraser</h1><br><br><br> Please press space as soon as you recall the target.",32,10,4,"CuePresentation",TRUE,"True",2,"","","True","29_8_2023_11_35_35","0assan0nym4bqrq","html-keyboard-response",549,1094741,"0.0-549.0","mirror","eraser","mirror",NA,NA,NA,4,NA,NA,NA,NA,NA,1,"True","False",0.240063744300811,2,"Correct"
268,2054.70000004768,"<h1>dough</h1><br><br><br> Please press space as soon as you recall the target.",32,10,5,"CuePresentation",TRUE,"True",2,"","","True","29_8_2023_11_35_35","0assan0nym4bqrq","html-keyboard-response",553,1102076,"0.0-553.0","tomato","dough","tomato",NA,NA,NA,7,NA,NA,NA,NA,NA,1,"True","False",0.445283558369461,3,"Correct"
270,8041,"<h1>binder</h1><br><br><br> Please press space as soon as you recall the target.",32,10,6,"CuePresentation",FALSE,"True",2,"","","True","29_8_2023_11_35_35","0assan0nym4bqrq","html-keyboard-response",557,1114846,"0.0-557.0","0","binder","weed",NA,NA,NA,1,NA,NA,NA,NA,NA,0,"False","False",0.193818930259629,1,"Omission"
272,7525.19999980927,"<h1>puddle</h1><br><br><br> Please press space as soon as you recall the target.",32,10,7,"CuePresentation",TRUE,"True",2,"","","True","29_8_2023_11_35_35","0assan0nym4bqrq","html-keyboard-response",561,1125660,"0.0-561.0","sand","puddle","sand",NA,NA,NA,5,NA,NA,NA,NA,NA,1,"True","False",0.676405431577326,4,"Correct"
274,7420.20000004768,"<h1>flower</h1><br><br><br> Please press space as soon as you recall the target.",32,10,8,"CuePresentation",FALSE,"True",2,"","","True","29_8_2023_11_35_35","0assan0nym4bqrq","html-keyboard-response",565,1136276,"0.0-565.0","petal","flower","orchid",NA,NA,NA,9,NA,NA,NA,NA,NA,0,"True","False",1.0000000758957,5,"Intrusion"
276,7162.89999985695,"<h1>leash</h1><br><br><br> Please press space as soon as you recall the target.",32,10,9,"CuePresentation",FALSE,"True",2,"","","True","29_8_2023_11_35_35","0assan0nym4bqrq","html-keyboard-response",569,1146751,"0.0-569.0","0","leash","drink",NA,NA,NA,2,NA,NA,NA,NA,NA,0,"True","False",0.108463556475143,1,"Omission"
278,4475.29999995232,"<h1>skunk</h1><br><br><br> Please press space as soon as you recall the target.",32,10,10,"CuePresentation",FALSE,"True",2,"","","True","29_8_2023_11_35_35","0assan0nym4bqrq","html-keyboard-response",573,1153982,"0.0-573.0","0","skunk","rope",NA,NA,NA,10,NA,NA,NA,NA,NA,0,"False","False",0.323396853922166,2,"Omission"
364,2185.20000004768,"<h1>iguana</h1><br><br><br> Please press space as soon as you recall the target.",32,8,1,"CuePresentation",TRUE,"True",3,"","","True","29_8_2023_11_35_35","0assan0nym4bqrq","html-keyboard-response",729,1422574,"0.0-729.0","otter","iguana","otter",NA,NA,NA,8,NA,NA,NA,NA,NA,1,"False","False",0.866536373711664,5,"Correct"
366,1943,"<h1>camper</h1><br><br><br> Please press space as soon as you recall the target.",32,8,2,"CuePresentation",TRUE,"True",3,"","","True","29_8_2023_11_35_35","0assan0nym4bqrq","html-keyboard-response",733,1427777,"0.0-733.0","closet","camper","closet",NA,NA,NA,4,NA,NA,NA,NA,NA,1,"True","False",0.336314072358579,2,"Correct"
368,1492.59999990463,"<h1>fudge</h1><br><br><br> Please press space as soon as you recall the target.",32,8,3,"CuePresentation",TRUE,"True",3,"","","True","29_8_2023_11_35_35","0assan0nym4bqrq","html-keyboard-response",737,1433101,"0.0-737.0","rifle","fudge","rifle",NA,NA,NA,7,NA,NA,NA,NA,NA,1,"True","False",0.0253189744766434,1,"Correct"
370,3908.40000009537,"<h1>boot</h1><br><br><br> Please press space as soon as you recall the target.",32,8,4,"CuePresentation",TRUE,"True",3,"","","True","29_8_2023_11_35_35","0assan0nym4bqrq","html-keyboard-response",741,1440404,"0.0-741.0","moss","boot","moss",NA,NA,NA,1,NA,NA,NA,NA,NA,1,"False","False",0.223088852677818,2,"Correct"
372,1814.40000009537,"<h1>throne</h1><br><br><br> Please press space as soon as you recall the target.",32,8,5,"CuePresentation",TRUE,"True",3,"","","True","29_8_2023_11_35_35","0assan0nym4bqrq","html-keyboard-response",745,1445841,"0.0-745.0","donket","throne","donkey",NA,NA,NA,6,NA,NA,NA,NA,NA,1,"False","False",0.108564855475739,1,"Correct"
374,3346.5,"<h1>kimono</h1><br><br><br> Please press space as soon as you recall the target.",32,8,6,"CuePresentation",TRUE,"True",3,"","","True","29_8_2023_11_35_35","0assan0nym4bqrq","html-keyboard-response",749,1452598,"0.0-749.0","locket","kimono","locket",NA,NA,NA,5,NA,NA,NA,NA,NA,1,"True","False",0.0103429243642662,1,"Correct"
376,1572.80000019073,"<h1>drain</h1><br><br><br> Please press space as soon as you recall the target.",32,8,7,"CuePresentation",TRUE,"True",3,"","","True","29_8_2023_11_35_35","0assan0nym4bqrq","html-keyboard-response",753,1457542,"0.0-753.0","sink","drain","sink",NA,NA,NA,3,NA,NA,NA,NA,NA,1,"False","False",0.631240283731934,4,"Correct"
378,5564.79999995232,"<h1>spool</h1><br><br><br> Please press space as soon as you recall the target.",32,8,8,"CuePresentation",FALSE,"True",3,"","","True","29_8_2023_11_35_35","0assan0nym4bqrq","html-keyboard-response",757,1466240,"0.0-757.0","0","spool","chisel",NA,NA,NA,2,NA,NA,NA,NA,NA,0,"True","False",0.561989970663317,3,"Omission"
500,10944.6999998093,"<h1>raft</h1><br><br><br> Please press space as soon as you recall the target.",32,20,1,"CuePresentation",FALSE,"True",4,"","","True","29_8_2023_11_35_35","0assan0nym4bqrq","html-keyboard-response",1009,1933390,"0.0-1009.0","spool","raft","shorts",NA,NA,NA,11,NA,NA,NA,NA,NA,0,"False","False",0.213414433174442,2,"Intrusion"
502,3061.79999995232,"<h1>quiche</h1><br><br><br> Please press space as soon as you recall the target.",32,20,2,"CuePresentation",TRUE,"True",4,"","","True","29_8_2023_11_35_35","0assan0nym4bqrq","html-keyboard-response",1013,1940578,"0.0-1013.0","pasta","quiche","pasta",NA,NA,NA,18,NA,NA,NA,NA,NA,1,"False","False",1.00000006075905,5,"Correct"
504,15140.2999999523,"<h1>slime</h1><br><br><br> Please press space as soon as you recall the target.",32,20,3,"CuePresentation",FALSE,"True",4,"","","True","29_8_2023_11_35_35","0assan0nym4bqrq","html-keyboard-response",1017,1959121,"0.0-1017.0","0","slime","possum",NA,NA,NA,4,NA,NA,NA,NA,NA,0,"True","False",0.299240600347622,2,"Omission"
506,1643.09999990463,"<h1>flag</h1><br><br><br> Please press space as soon as you recall the target.",32,20,4,"CuePresentation",TRUE,"True",4,"","","True","29_8_2023_11_35_35","0assan0nym4bqrq","html-keyboard-response",1021,1964001,"0.0-1021.0","banner","flag","banner",NA,NA,NA,3,NA,NA,NA,NA,NA,1,"False","False",0.616673037290324,4,"Correct"
508,2286.70000004768,"<h1>horse</h1><br><br><br> Please press space as soon as you recall the target.",32,20,5,"CuePresentation",TRUE,"True",4,"","","True","29_8_2023_11_35_35","0assan0nym4bqrq","html-keyboard-response",1025,1969363,"0.0-1025.0","pony","horse","pony",NA,NA,NA,10,NA,NA,NA,NA,NA,1,"False","False",0.653305820007919,4,"Correct"
510,4623.59999990463,"<h1>bonsai</h1><br><br><br> Please press space as soon as you recall the target.",32,20,6,"CuePresentation",FALSE,"True",4,"","","True","29_8_2023_11_35_35","0assan0nym4bqrq","html-keyboard-response",1029,1977058,"0.0-1029.0","petal","bonsai","tulip",NA,NA,NA,1,NA,NA,NA,NA,NA,0,"False","False",0.549562972213874,3,"Intrusion"
512,5700.29999995232,"<h1>floss</h1><br><br><br> Please press space as soon as you recall the target.",32,20,7,"CuePresentation",FALSE,"True",4,"","","True","29_8_2023_11_35_35","0assan0nym4bqrq","html-keyboard-response",1033,1985906,"0.0-1033.0","0","floss","powder",NA,NA,NA,9,NA,NA,NA,NA,NA,0,"True","False",0.48735431534364,3,"Omission"
514,5283.59999990463,"<h1>koala</h1><br><br><br> Please press space as soon as you recall the target.",32,20,8,"CuePresentation",TRUE,"True",4,"","","True","29_8_2023_11_35_35","0assan0nym4bqrq","html-keyboard-response",1037,1994041,"0.0-1037.0","snake","koala","snake",NA,NA,NA,2,NA,NA,NA,NA,NA,1,"True","False",0.674045570966141,4,"Correct"
516,1717.5,"<h1>visor</h1><br><br><br> Please press space as soon as you recall the target.",32,20,9,"CuePresentation",TRUE,"True",4,"","","True","29_8_2023_11_35_35","0assan0nym4bqrq","html-keyboard-response",1041,1999135,"0.0-1041.0","helmet","visor","helmet",NA,NA,NA,7,NA,NA,NA,NA,NA,1,"True","False",1.0000000639651,5,"Correct"
518,2085.70000004768,"<h1>blower</h1><br><br><br> Please press space as soon as you recall the target.",32,20,10,"CuePresentation",FALSE,"True",4,"","","True","29_8_2023_11_35_35","0assan0nym4bqrq","html-keyboard-response",1045,2004407,"0.0-1045.0","tor","blower","faucet",NA,NA,NA,5,NA,NA,NA,NA,NA,0,"True","False",0.127666791564387,1,"Intrusion"
629,5787.90000000596,"<h1>sandal</h1><br><br><br> Please press space as soon as you recall the target.",32,16,1,"CuePresentation",TRUE,"True",1,"","","True","11_8_2023_23_32_43","0c8mkfytab041ba","html-keyboard-response",217,379868,"0.0-217.0","insole","sandal","insole",NA,NA,NA,1,NA,NA,NA,NA,NA,1,"False","True",0.854520532339466,5,"Correct"
631,1627.30000001192,"<h1>eraser</h1><br><br><br> Please press space as soon as you recall the target.",32,16,2,"CuePresentation",TRUE,"True",1,"","","True","11_8_2023_23_32_43","0c8mkfytab041ba","html-keyboard-response",221,384787,"0.0-221.0","mirror","eraser","mirror",NA,NA,NA,11,NA,NA,NA,NA,NA,1,"False","True",0.240063744300811,2,"Correct"
633,1631.80000001192,"<h1>button</h1><br><br><br> Please press space as soon as you recall the target.",32,16,3,"CuePresentation",TRUE,"True",1,"","","True","11_8_2023_23_32_43","0c8mkfytab041ba","html-keyboard-response",225,390023,"0.0-225.0","knob","button","knob",NA,NA,NA,7,NA,NA,NA,NA,NA,1,"True","True",0.874543616124306,5,"Correct"
635,8903.5,"<h1>buggy</h1><br><br><br> Please press space as soon as you recall the target.",32,16,4,"CuePresentation",FALSE,"True",1,"","","True","11_8_2023_23_32_43","0c8mkfytab041ba","html-keyboard-response",229,401956,"0.0-229.0","kart","buggy","cart",NA,NA,NA,9,NA,NA,NA,NA,NA,0,"True","True",0.428620405334395,3,"Intrusion"
637,3171.60000002384,"<h1>hanger</h1><br><br><br> Please press space as soon as you recall the target.",32,16,5,"CuePresentation",TRUE,"True",1,"","","True","11_8_2023_23_32_43","0c8mkfytab041ba","html-keyboard-response",233,408099,"0.0-233.0","lime","hanger","lime",NA,NA,NA,16,NA,NA,NA,NA,NA,1,"False","True",0.177170693013488,1,"Correct"
639,4020.40000000596,"<h1>possum</h1><br><br><br> Please press space as soon as you recall the target.",32,16,6,"CuePresentation",FALSE,"True",1,"","","True","11_8_2023_23_32_43","0c8mkfytab041ba","html-keyboard-response",237,415139,"0.0-237.0","fungus","possum","slime",NA,NA,NA,5,NA,NA,NA,NA,NA,0,"True","True",0.299240600347622,2,"Intrusion"
641,991.800000011921,"<h1>bacon</h1><br><br><br> Please press space as soon as you recall the target.",32,16,7,"CuePresentation",TRUE,"True",1,"","","True","11_8_2023_23_32_43","0c8mkfytab041ba","html-keyboard-response",241,419638,"0.0-241.0","hotdog","bacon","hotdog",NA,NA,NA,4,NA,NA,NA,NA,NA,1,"True","True",0.654814915149301,4,"Correct"
643,2404.10000002384,"<h1>kite</h1><br><br><br> Please press space as soon as you recall the target.",32,16,8,"CuePresentation",TRUE,"True",1,"","","True","11_8_2023_23_32_43","0c8mkfytab041ba","html-keyboard-response",245,425222,"0.0-245.0","record","kite","record",NA,NA,NA,2,NA,NA,NA,NA,NA,1,"True","True",0.150266880798289,1,"Correct"
645,1860.89999997616,"<h1>moth</h1><br><br><br> Please press space as soon as you recall the target.",32,16,9,"CuePresentation",TRUE,"True",1,"","","True","11_8_2023_23_32_43","0c8mkfytab041ba","html-keyboard-response",249,430141,"0.0-249.0","fungus","moth","fungus",NA,NA,NA,3,NA,NA,NA,NA,NA,1,"False","True",0.421186232744235,3,"Correct"
647,1300.80000001192,"<h1>folder</h1><br><br><br> Please press space as soon as you recall the target.",32,16,10,"CuePresentation",TRUE,"True",1,"","","True","11_8_2023_23_32_43","0c8mkfytab041ba","html-keyboard-response",253,434564,"0.0-253.0","file","folder","file",NA,NA,NA,15,NA,NA,NA,NA,NA,1,"False","True",0.761074923120327,4,"Correct"
763,5079.5,"<h1>thumb</h1><br><br><br> Please press space as soon as you recall the target.",32,18,1,"CuePresentation",FALSE,"True",2,"","","True","11_8_2023_23_32_43","0c8mkfytab041ba","html-keyboard-response",489,831421,"0.0-489.0","0","thumb","anklet",NA,NA,NA,9,NA,NA,NA,NA,NA,0,"True","True",0.47748479244258,3,"Omission"
765,2062.30000001192,"<h1>jacket</h1><br><br><br> Please press space as soon as you recall the target.",32,18,2,"CuePresentation",TRUE,"True",2,"","","True","11_8_2023_23_32_43","0c8mkfytab041ba","html-keyboard-response",493,837238,"0.0-493.0","blazer","jacket","blazer",NA,NA,NA,15,NA,NA,NA,NA,NA,1,"False","True",1.00000002728999,5,"Correct"
767,4234.19999998808,"<h1>tick</h1><br><br><br> Please press space as soon as you recall the target.",32,18,3,"CuePresentation",TRUE,"True",2,"","","True","11_8_2023_23_32_43","0c8mkfytab041ba","html-keyboard-response",497,845784,"0.0-497.0","clay","tick","clay",NA,NA,NA,5,NA,NA,NA,NA,NA,1,"True","True",0.0153055198591734,1,"Correct"
769,2051.80000001192,"<h1>crow</h1><br><br><br> Please press space as soon as you recall the target.",32,18,4,"CuePresentation",TRUE,"True",2,"","","True","11_8_2023_23_32_43","0c8mkfytab041ba","html-keyboard-response",501,850892,"0.0-501.0","bird","crow","bird",NA,NA,NA,1,NA,NA,NA,NA,NA,1,"False","True",0.999999881451747,5,"Correct"
771,888.600000023842,"<h1>chick</h1><br><br><br> Please press space as soon as you recall the target.",32,18,5,"CuePresentation",TRUE,"True",2,"","","True","11_8_2023_23_32_43","0c8mkfytab041ba","html-keyboard-response",505,854546,"0.0-505.0","girl","chick","girl",NA,NA,NA,4,NA,NA,NA,NA,NA,1,"True","True",0.624724496623479,4,"Correct"
773,1982.69999998808,"<h1>kayak</h1><br><br><br> Please press space as soon as you recall the target.",32,18,6,"CuePresentation",TRUE,"True",2,"","","True","11_8_2023_23_32_43","0c8mkfytab041ba","html-keyboard-response",509,859575,"0.0-509.0","block","kayak","block",NA,NA,NA,16,NA,NA,NA,NA,NA,1,"False","True",0.234036216185256,2,"Correct"
775,1172.09999999404,"<h1>amber</h1><br><br><br> Please press space as soon as you recall the target.",32,18,7,"CuePresentation",TRUE,"True",2,"","","True","11_8_2023_23_32_43","0c8mkfytab041ba","html-keyboard-response",513,863977,"0.0-513.0","orange","amber","orange",NA,NA,NA,2,NA,NA,NA,NA,NA,1,"True","True",0.999999963859867,5,"Correct"
777,1869.39999997616,"<h1>wand</h1><br><br><br> Please press space as soon as you recall the target.",32,18,8,"CuePresentation",TRUE,"True",2,"","","True","11_8_2023_23_32_43","0c8mkfytab041ba","html-keyboard-response",517,868926,"0.0-517.0","money","wand","money",NA,NA,NA,7,NA,NA,NA,NA,NA,1,"True","True",0.215125963179727,2,"Correct"
779,1709.69999998808,"<h1>lion</h1><br><br><br> Please press space as soon as you recall the target.",32,18,9,"CuePresentation",TRUE,"True",2,"","","True","11_8_2023_23_32_43","0c8mkfytab041ba","html-keyboard-response",521,873703,"0.0-521.0","fossil","lion","fossil",NA,NA,NA,11,NA,NA,NA,NA,NA,1,"False","True",0.196524623623291,1,"Correct"
781,9931.29999998212,"<h1>blind</h1><br><br><br> Please press space as soon as you recall the target.",32,18,10,"CuePresentation",FALSE,"True",2,"","","True","11_8_2023_23_32_43","0c8mkfytab041ba","html-keyboard-response",525,886738,"0.0-525.0","0","blind","switch",NA,NA,NA,17,NA,NA,NA,NA,NA,0,"False","True",0.252173754849272,2,"Omission"
861,1677.70000001788,"<h1>badger</h1><br><br><br> Please press space as soon as you recall the target.",32,6,1,"CuePresentation",TRUE,"True",3,"","","True","11_8_2023_23_32_43","0c8mkfytab041ba","html-keyboard-response",665,1099400,"0.0-665.0","acorn","badger","acorn",NA,NA,NA,1,NA,NA,NA,NA,NA,1,"False","True",0.168680108473489,1,"Correct"
863,1516.59999999404,"<h1>pony</h1><br><br><br> Please press space as soon as you recall the target.",32,6,2,"CuePresentation",TRUE,"True",3,"","","True","11_8_2023_23_32_43","0c8mkfytab041ba","html-keyboard-response",669,1104299,"0.0-669.0","horse","pony","horse",NA,NA,NA,4,NA,NA,NA,NA,NA,1,"True","True",0.653305820007919,4,"Correct"
865,1394.80000001192,"<h1>tomato</h1><br><br><br> Please press space as soon as you recall the target.",32,6,3,"CuePresentation",TRUE,"True",3,"","","True","11_8_2023_23_32_43","0c8mkfytab041ba","html-keyboard-response",673,1108792,"0.0-673.0","dough","tomato","dough",NA,NA,NA,5,NA,NA,NA,NA,NA,1,"True","True",0.445283558369461,3,"Correct"
867,1823.80000001192,"<h1>pulley</h1><br><br><br> Please press space as soon as you recall the target.",32,6,4,"CuePresentation",TRUE,"True",3,"","","True","11_8_2023_23_32_43","0c8mkfytab041ba","html-keyboard-response",677,1113532,"0.0-677.0","crank","pulley","crank",NA,NA,NA,3,NA,NA,NA,NA,NA,1,"False","True",0.999999982961594,5,"Correct"
869,1013.89999997616,"<h1>pipe</h1><br><br><br> Please press space as soon as you recall the target.",32,6,5,"CuePresentation",TRUE,"True",3,"","","True","11_8_2023_23_32_43","0c8mkfytab041ba","html-keyboard-response",681,1118166,"0.0-681.0","paper","pipe","paper",NA,NA,NA,6,NA,NA,NA,NA,NA,1,"False","True",0.258097566940599,2,"Correct"
871,2354.70000001788,"<h1>beetle</h1><br><br><br> Please press space as soon as you recall the target.",32,6,6,"CuePresentation",TRUE,"True",3,"","","True","11_8_2023_23_32_43","0c8mkfytab041ba","html-keyboard-response",685,1123569,"0.0-685.0","kitten","beetle","kitten",NA,NA,NA,2,NA,NA,NA,NA,NA,1,"True","True",0.316639554830722,2,"Correct"
1017,2656.69999998808,"<h1>banner</h1><br><br><br> Please press space as soon as you recall the target.",32,28,1,"CuePresentation",TRUE,"True",4,"","","True","11_8_2023_23_32_43","0c8mkfytab041ba","html-keyboard-response",1001,1656678,"0.0-1001.0","flag","banner","flag",NA,NA,NA,7,NA,NA,NA,NA,NA,1,"True","True",0.616673037290324,4,"Correct"
1019,3631,"<h1>bonnet</h1><br><br><br> Please press space as soon as you recall the target.",32,28,2,"CuePresentation",FALSE,"True",4,"","","True","11_8_2023_23_32_43","0c8mkfytab041ba","html-keyboard-response",1005,1663050,"0.0-1005.0","hat","bonnet","scoop",NA,NA,NA,13,NA,NA,NA,NA,NA,0,"False","True",0.295501525339056,2,"Intrusion"
1021,2277.90000000596,"<h1>makeup</h1><br><br><br> Please press space as soon as you recall the target.",32,28,3,"CuePresentation",TRUE,"True",4,"","","True","11_8_2023_23_32_43","0c8mkfytab041ba","html-keyboard-response",1009,1668018,"0.0-1009.0","paint","makeup","paint",NA,NA,NA,3,NA,NA,NA,NA,NA,1,"False","True",0.505935810169567,3,"Correct"
1023,1057.5,"<h1>gravy</h1><br><br><br> Please press space as soon as you recall the target.",32,28,4,"CuePresentation",TRUE,"True",4,"","","True","11_8_2023_23_32_43","0c8mkfytab041ba","html-keyboard-response",1013,1672150,"0.0-1013.0","grits","gravy","grits",NA,NA,NA,5,NA,NA,NA,NA,NA,1,"True","True",0.999999922215502,5,"Correct"
1025,1382.29999998212,"<h1>tripod</h1><br><br><br> Please press space as soon as you recall the target.",32,28,5,"CuePresentation",TRUE,"True",4,"","","True","11_8_2023_23_32_43","0c8mkfytab041ba","html-keyboard-response",1017,1676408,"0.0-1017.0","heater","tripod","heater",NA,NA,NA,4,NA,NA,NA,NA,NA,1,"True","True",0.426391146408292,3,"Correct"
1027,5883.19999998808,"<h1>crutch</h1><br><br><br> Please press space as soon as you recall the target.",32,28,6,"CuePresentation",FALSE,"True",4,"","","True","11_8_2023_23_32_43","0c8mkfytab041ba","html-keyboard-response",1021,1685192,"0.0-1021.0","clinch","crutch","camel",NA,NA,NA,2,NA,NA,NA,NA,NA,0,"True","True",0.366853562408624,2,"Intrusion"
1029,3996.59999999404,"<h1>watch</h1><br><br><br> Please press space as soon as you recall the target.",32,28,7,"CuePresentation",TRUE,"True",4,"","","True","11_8_2023_23_32_43","0c8mkfytab041ba","html-keyboard-response",1025,1692433,"0.0-1025.0","sponge","watch","sponge",NA,NA,NA,9,NA,NA,NA,NA,NA,1,"True","True",0.17659200800734,1,"Correct"
1031,903.90000000596,"<h1>muffin</h1><br><br><br> Please press space as soon as you recall the target.",32,28,8,"CuePresentation",TRUE,"True",4,"","","True","11_8_2023_23_32_43","0c8mkfytab041ba","html-keyboard-response",1029,1696524,"0.0-1029.0","crumb","muffin","crumb",NA,NA,NA,15,NA,NA,NA,NA,NA,1,"False","True",0.999999975253751,5,"Correct"
1033,5156.59999999404,"<h1>apple</h1><br><br><br> Please press space as soon as you recall the target.",32,28,9,"CuePresentation",FALSE,"True",4,"","","True","11_8_2023_23_32_43","0c8mkfytab041ba","html-keyboard-response",1033,1704929,"0.0-1033.0","0","apple","kiwi",NA,NA,NA,19,NA,NA,NA,NA,NA,0,"False","True",0.630507650883796,4,"Omission"
1035,1484.5,"<h1>gauze</h1><br><br><br> Please press space as soon as you recall the target.",32,28,10,"CuePresentation",TRUE,"True",4,"","","True","11_8_2023_23_32_43","0c8mkfytab041ba","html-keyboard-response",1037,1709424,"0.0-1037.0","shelf","gauze","shelf",NA,NA,NA,17,NA,NA,NA,NA,NA,1,"False","True",0.379523785471593,2,"Correct"
1182,1826,"<h1>amber</h1><br><br><br> Please press space as soon as you recall the target.",32,28,1,"CuePresentation",TRUE,"True",1,"","","True","8_8_2023_11_36_48","0f6nydv2yw72ruv","html-keyboard-response",313,691389,"0.0-313.0","orange","amber","orange",NA,NA,NA,7,NA,NA,NA,NA,NA,1,"True","True",0.999999963859867,5,"Correct"
1184,2507,"<h1>cereal</h1><br><br><br> Please press space as soon as you recall the target.",32,28,2,"CuePresentation",TRUE,"True",1,"","","True","8_8_2023_11_36_48","0f6nydv2yw72ruv","html-keyboard-response",317,697957,"0.0-317.0","cookie","cereal","cookie",NA,NA,NA,10,NA,NA,NA,NA,NA,1,"False","True",0.432807624318706,3,"Correct"
1186,1442,"<h1>altar</h1><br><br><br> Please press space as soon as you recall the target.",32,28,3,"CuePresentation",TRUE,"True",1,"","","True","8_8_2023_11_36_48","0f6nydv2yw72ruv","html-keyboard-response",321,703581,"0.0-321.0","rosary","altar","rosary",NA,NA,NA,18,NA,NA,NA,NA,NA,1,"False","True",0.461896339092241,3,"Correct"
1188,2273,"<h1>binder</h1><br><br><br> Please press space as soon as you recall the target.",32,28,4,"CuePresentation",TRUE,"True",1,"","","True","8_8_2023_11_36_48","0f6nydv2yw72ruv","html-keyboard-response",325,710031,"0.0-325.0","weed","binder","weed",NA,NA,NA,4,NA,NA,NA,NA,NA,1,"True","True",0.193818930259629,1,"Correct"
1190,1076,"<h1>sandal</h1><br><br><br> Please press space as soon as you recall the target.",32,28,5,"CuePresentation",TRUE,"True",1,"","","True","8_8_2023_11_36_48","0f6nydv2yw72ruv","html-keyboard-response",329,714652,"0.0-329.0","insole","sandal","insole",NA,NA,NA,25,NA,NA,NA,NA,NA,1,"False","True",0.854520532339466,5,"Correct"
1192,1507,"<h1>blind</h1><br><br><br> Please press space as soon as you recall the target.",32,28,6,"CuePresentation",TRUE,"True",1,"","","True","8_8_2023_11_36_48","0f6nydv2yw72ruv","html-keyboard-response",333,719894,"0.0-333.0","switch","blind","switch",NA,NA,NA,14,NA,NA,NA,NA,NA,1,"False","True",0.252173754849272,2,"Correct"
1194,1071,"<h1>nose</h1><br><br><br> Please press space as soon as you recall the target.",32,28,7,"CuePresentation",TRUE,"True",1,"","","True","8_8_2023_11_36_48","0f6nydv2yw72ruv","html-keyboard-response",337,726154,"0.0-337.0","mouth","nose","mouth",NA,NA,NA,3,NA,NA,NA,NA,NA,1,"False","True",0.661824468395778,4,"Correct"
1196,1482,"<h1>ring</h1><br><br><br> Please press space as soon as you recall the target.",32,28,8,"CuePresentation",TRUE,"True",1,"","","True","8_8_2023_11_36_48","0f6nydv2yw72ruv","html-keyboard-response",341,730805,"0.0-341.0","prism","ring","prism",NA,NA,NA,9,NA,NA,NA,NA,NA,1,"True","True",0.359066430514316,2,"Correct"
1198,1071,"<h1>jersey</h1><br><br><br> Please press space as soon as you recall the target.",32,28,9,"CuePresentation",TRUE,"True",1,"","","True","8_8_2023_11_36_48","0f6nydv2yw72ruv","html-keyboard-response",345,735077,"0.0-345.0","shirt","jersey","shirt",NA,NA,NA,5,NA,NA,NA,NA,NA,1,"True","True",0.649010826232407,4,"Correct"
1200,1249,"<h1>paint</h1><br><br><br> Please press space as soon as you recall the target.",32,28,10,"CuePresentation",TRUE,"True",1,"","","True","8_8_2023_11_36_48","0f6nydv2yw72ruv","html-keyboard-response",349,739679,"0.0-349.0","makeup","paint","makeup",NA,NA,NA,2,NA,NA,NA,NA,NA,1,"True","True",0.505935810169567,3,"Correct"
1280,24910,"<h1>chips</h1><br><br><br> Please press space as soon as you recall the target.",32,6,1,"CuePresentation",FALSE,"True",2,"","","True","8_8_2023_11_36_48","0f6nydv2yw72ruv","html-keyboard-response",489,1052043,"0.0-489.0","0","chips","potato",NA,NA,NA,5,NA,NA,NA,NA,NA,0,"True","True",0.603917424192587,4,"Omission"
1282,4544,"<h1>money</h1><br><br><br> Please press space as soon as you recall the target.",32,6,2,"CuePresentation",FALSE,"True",2,"","","True","8_8_2023_11_36_48","0f6nydv2yw72ruv","html-keyboard-response",493,1059513,"0.0-493.0","0","money","wand",NA,NA,NA,4,NA,NA,NA,NA,NA,0,"True","True",0.215125963179727,2,"Omission"
1284,1039,"<h1>eagle</h1><br><br><br> Please press space as soon as you recall the target.",32,6,3,"CuePresentation",TRUE,"True",2,"","","True","8_8_2023_11_36_48","0f6nydv2yw72ruv","html-keyboard-response",497,1064620,"0.0-497.0","hawk","eagle","hawk",NA,NA,NA,1,NA,NA,NA,NA,NA,1,"False","True",1.00000004736111,5,"Correct"
1286,11648,"<h1>kimono</h1><br><br><br> Please press space as soon as you recall the target.",32,6,4,"CuePresentation",FALSE,"True",2,"","","True","8_8_2023_11_36_48","0f6nydv2yw72ruv","html-keyboard-response",501,1080054,"0.0-501.0","dress","kimono","locket",NA,NA,NA,6,NA,NA,NA,NA,NA,0,"False","True",0.0103429243642662,1,"Intrusion"
1288,1588,"<h1>chest</h1><br><br><br> Please press space as soon as you recall the target.",32,6,5,"CuePresentation",FALSE,"True",2,"","","True","8_8_2023_11_36_48","0f6nydv2yw72ruv","html-keyboard-response",505,1084774,"0.0-505.0","kimono","chest","dial",NA,NA,NA,2,NA,NA,NA,NA,NA,0,"True","True",0.197907306417201,1,"Intrusion"
1290,971,"<h1>buggy</h1><br><br><br> Please press space as soon as you recall the target.",32,6,6,"CuePresentation",TRUE,"True",2,"","","True","8_8_2023_11_36_48","0f6nydv2yw72ruv","html-keyboard-response",509,1089577,"0.0-509.0","cart","buggy","cart",NA,NA,NA,3,NA,NA,NA,NA,NA,1,"False","True",0.428620405334395,3,"Correct"
1400,11468,"<h1>zipper</h1><br><br><br> Please press space as soon as you recall the target.",32,16,1,"CuePresentation",TRUE,"True",3,"","","True","8_8_2023_11_36_48","0f6nydv2yw72ruv","html-keyboard-response",729,1537234,"0.0-729.0","buckle","zipper","buckle",NA,NA,NA,3,NA,NA,NA,NA,NA,1,"False","True",0.948896955583809,5,"Correct"
1402,3883,"<h1>blower</h1><br><br><br> Please press space as soon as you recall the target.",32,16,2,"CuePresentation",TRUE,"True",3,"","","True","8_8_2023_11_36_48","0f6nydv2yw72ruv","html-keyboard-response",733,1546149,"0.0-733.0","faucet","blower","faucet",NA,NA,NA,1,NA,NA,NA,NA,NA,1,"False","True",0.127666791564387,1,"Correct"
1404,1791,"<h1>sushi</h1><br><br><br> Please press space as soon as you recall the target.",32,16,3,"CuePresentation",TRUE,"True",3,"","","True","8_8_2023_11_36_48","0f6nydv2yw72ruv","html-keyboard-response",737,1552074,"0.0-737.0","sundae","sushi","sundae",NA,NA,NA,5,NA,NA,NA,NA,NA,1,"True","True",0.610210725864509,4,"Correct"
1406,2537,"<h1>roll</h1><br><br><br> Please press space as soon as you recall the target.",32,16,4,"CuePresentation",TRUE,"True",3,"","","True","8_8_2023_11_36_48","0f6nydv2yw72ruv","html-keyboard-response",741,1559041,"0.0-741.0","leek","roll","leek",NA,NA,NA,2,NA,NA,NA,NA,NA,1,"True","True",0.228290377679196,2,"Correct"
1408,2334,"<h1>folder</h1><br><br><br> Please press space as soon as you recall the target.",32,16,5,"CuePresentation",TRUE,"True",3,"","","True","8_8_2023_11_36_48","0f6nydv2yw72ruv","html-keyboard-response",745,1565198,"0.0-745.0","file","folder","file",NA,NA,NA,11,NA,NA,NA,NA,NA,1,"False","True",0.761074923120327,4,"Correct"
1410,12264,"<h1>wire</h1><br><br><br> Please press space as soon as you recall the target.",32,16,6,"CuePresentation",TRUE,"True",3,"","","True","8_8_2023_11_36_48","0f6nydv2yw72ruv","html-keyboard-response",749,1581645,"0.0-749.0","tape","wire","tape",NA,NA,NA,10,NA,NA,NA,NA,NA,1,"False","True",0.501096990479819,3,"Correct"
1412,12425,"<h1>flask</h1><br><br><br> Please press space as soon as you recall the target.",32,16,7,"CuePresentation",TRUE,"True",3,"","","True","8_8_2023_11_36_48","0f6nydv2yw72ruv","html-keyboard-response",753,1598129,"0.0-753.0","cigar","flask","cigar",NA,NA,NA,12,NA,NA,NA,NA,NA,1,"False","True",0.485236393705821,3,"Correct"
1414,2121,"<h1>train</h1><br><br><br> Please press space as soon as you recall the target.",32,16,8,"CuePresentation",TRUE,"True",3,"","","True","8_8_2023_11_36_48","0f6nydv2yw72ruv","html-keyboard-response",757,1604500,"0.0-757.0","branch","train","branch",NA,NA,NA,7,NA,NA,NA,NA,NA,1,"True","True",0.401947106568526,3,"Correct"
1416,1252,"<h1>otter</h1><br><br><br> Please press space as soon as you recall the target.",32,16,9,"CuePresentation",TRUE,"True",3,"","","True","8_8_2023_11_36_48","0f6nydv2yw72ruv","html-keyboard-response",761,1609651,"0.0-761.0","iguana","otter","iguana",NA,NA,NA,9,NA,NA,NA,NA,NA,1,"True","True",0.866536373711664,5,"Correct"
1418,2434,"<h1>bison</h1><br><br><br> Please press space as soon as you recall the target.",32,16,10,"CuePresentation",TRUE,"True",3,"","","True","8_8_2023_11_36_48","0f6nydv2yw72ruv","html-keyboard-response",765,1617184,"0.0-765.0","bikini","bison","bikini",NA,NA,NA,4,NA,NA,NA,NA,NA,1,"True","True",0.0439818995812783,1,"Correct"
1534,1532,"<h1>gauze</h1><br><br><br> Please press space as soon as you recall the target.",32,18,1,"CuePresentation",TRUE,"True",4,"","","True","8_8_2023_11_36_48","0f6nydv2yw72ruv","html-keyboard-response",1001,2092266,"0.0-1001.0","shelf","gauze","shelf",NA,NA,NA,7,NA,NA,NA,NA,NA,1,"True","True",0.379523785471593,2,"Correct"
1536,8456,"<h1>boar</h1><br><br><br> Please press space as soon as you recall the target.",32,18,2,"CuePresentation",TRUE,"True",4,"","","True","8_8_2023_11_36_48","0f6nydv2yw72ruv","html-keyboard-response",1005,2103784,"0.0-1005.0","coat","boar","coat",NA,NA,NA,13,NA,NA,NA,NA,NA,1,"False","True",0.281532111177466,2,"Correct"
1538,18989,"<h1>kilt</h1><br><br><br> Please press space as soon as you recall the target.",32,18,3,"CuePresentation",TRUE,"True",4,"","","True","8_8_2023_11_36_48","0f6nydv2yw72ruv","html-keyboard-response",1009,2126512,"0.0-1009.0","tiara","kilt","tiara",NA,NA,NA,5,NA,NA,NA,NA,NA,1,"True","True",0.750416700964624,4,"Correct"
1540,3433,"<h1>badger</h1><br><br><br> Please press space as soon as you recall the target.",32,18,4,"CuePresentation",TRUE,"True",4,"","","True","8_8_2023_11_36_48","0f6nydv2yw72ruv","html-keyboard-response",1013,2133388,"0.0-1013.0","acorn","badger","acorn",NA,NA,NA,9,NA,NA,NA,NA,NA,1,"True","True",0.168680108473489,1,"Correct"
1542,14061,"<h1>mast</h1><br><br><br> Please press space as soon as you recall the target.",32,18,5,"CuePresentation",TRUE,"True",4,"","","True","8_8_2023_11_36_48","0f6nydv2yw72ruv","html-keyboard-response",1017,2150785,"0.0-1017.0","frame","mast","frame",NA,NA,NA,11,NA,NA,NA,NA,NA,1,"False","True",0.455237418240569,3,"Correct"
1544,13739,"<h1>tomato</h1><br><br><br> Please press space as soon as you recall the target.",32,18,6,"CuePresentation",TRUE,"True",4,"","","True","8_8_2023_11_36_48","0f6nydv2yw72ruv","html-keyboard-response",1021,2167774,"0.0-1021.0","dough","tomato","dough",NA,NA,NA,2,NA,NA,NA,NA,NA,1,"True","True",0.445283558369461,3,"Correct"
1546,7417,"<h1>chalk</h1><br><br><br> Please press space as soon as you recall the target.",32,18,7,"CuePresentation",TRUE,"True",4,"","","True","8_8_2023_11_36_48","0f6nydv2yw72ruv","html-keyboard-response",1025,2178495,"0.0-1025.0","cloak","chalk","cloak",NA,NA,NA,16,NA,NA,NA,NA,NA,1,"False","True",0.143585884717132,1,"Correct"
1548,23047,"<h1>blouse</h1><br><br><br> Please press space as soon as you recall the target.",32,18,8,"CuePresentation",TRUE,"True",4,"","","True","8_8_2023_11_36_48","0f6nydv2yw72ruv","html-keyboard-response",1029,2205896,"0.0-1029.0","skirt","blouse","skirt",NA,NA,NA,4,NA,NA,NA,NA,NA,1,"True","True",0.999999967678032,5,"Correct"
1550,6683,"<h1>squid</h1><br><br><br> Please press space as soon as you recall the target.",32,18,9,"CuePresentation",TRUE,"True",4,"","","True","8_8_2023_11_36_48","0f6nydv2yw72ruv","html-keyboard-response",1033,2216076,"0.0-1033.0","fish","squid","fish",NA,NA,NA,17,NA,NA,NA,NA,NA,1,"False","True",0.752440606490791,4,"Correct"
1552,2933,"<h1>kite</h1><br><br><br> Please press space as soon as you recall the target.",32,18,10,"CuePresentation",TRUE,"True",4,"","","True","8_8_2023_11_36_48","0f6nydv2yw72ruv","html-keyboard-response",1037,2221958,"0.0-1037.0","record","kite","record",NA,NA,NA,18,NA,NA,NA,NA,NA,1,"False","True",0.150266880798289,1,"Correct"
1705,2734.5,"<h1>camel</h1><br><br><br> Please press space as soon as you recall the target.",32,30,1,"CuePresentation",FALSE,"True",1,"","","True","11_8_2023_10_9_34","0hfly3uzy7qnhxp","html-keyboard-response",329,627592,"0.0-329.0","0","camel","crutch",NA,NA,NA,19,NA,NA,NA,NA,NA,0,"False","True",0.366853562408624,2,"Omission"
1707,4219,"<h1>barrel</h1><br><br><br> Please press space as soon as you recall the target.",32,30,2,"CuePresentation",FALSE,"True",1,"","","True","11_8_2023_10_9_34","0hfly3uzy7qnhxp","html-keyboard-response",333,634730,"0.0-333.0","0","barrel","crane",NA,NA,NA,22,NA,NA,NA,NA,NA,0,"False","True",0.375189052412563,2,"Omission"
1709,2957.10000000009,"<h1>parrot</h1><br><br><br> Please press space as soon as you recall the target.",32,30,3,"CuePresentation",FALSE,"True",1,"","","True","11_8_2023_10_9_34","0hfly3uzy7qnhxp","html-keyboard-response",337,640519,"0.0-337.0","0","parrot","turtle",NA,NA,NA,2,NA,NA,NA,NA,NA,0,"True","True",0.65206421477411,4,"Omission"
1711,1107.60000000009,"<h1>amber</h1><br><br><br> Please press space as soon as you recall the target.",32,30,4,"CuePresentation",TRUE,"True",1,"","","True","11_8_2023_10_9_34","0hfly3uzy7qnhxp","html-keyboard-response",341,644475,"0.0-341.0","orange","amber","orange",NA,NA,NA,18,NA,NA,NA,NA,NA,1,"False","True",0.999999963859867,5,"Correct"
1713,2135.40000000037,"<h1>bird</h1><br><br><br> Please press space as soon as you recall the target.",32,30,5,"CuePresentation",TRUE,"True",1,"","","True","11_8_2023_10_9_34","0hfly3uzy7qnhxp","html-keyboard-response",345,650073,"0.0-345.0","crow","bird","crow",NA,NA,NA,9,NA,NA,NA,NA,NA,1,"True","True",0.999999881451747,5,"Correct"
1715,1333.20000000019,"<h1>wolf</h1><br><br><br> Please press space as soon as you recall the target.",32,30,6,"CuePresentation",TRUE,"True",1,"","","True","11_8_2023_10_9_34","0hfly3uzy7qnhxp","html-keyboard-response",349,654763,"0.0-349.0","bowite","wolf","bowtie",NA,NA,NA,5,NA,NA,NA,NA,NA,1,"True","True",0.208376515332164,2,"Correct"
1717,3189.39999999991,"<h1>leash</h1><br><br><br> Please press space as soon as you recall the target.",32,30,7,"CuePresentation",FALSE,"True",1,"","","True","11_8_2023_10_9_34","0hfly3uzy7qnhxp","html-keyboard-response",353,661456,"0.0-353.0","possum","leash","drink",NA,NA,NA,15,NA,NA,NA,NA,NA,0,"False","True",0.108463556475143,1,"Intrusion"
1719,6890.59999999963,"<h1>coyote</h1><br><br><br> Please press space as soon as you recall the target.",32,30,8,"CuePresentation",TRUE,"True",1,"","","True","11_8_2023_10_9_34","0hfly3uzy7qnhxp","html-keyboard-response",357,672201,"0.0-357.0","cobra","coyote","cobra",NA,NA,NA,24,NA,NA,NA,NA,NA,1,"False","True",0.579578025639824,3,"Correct"
1721,1896.79999999981,"<h1>slicer</h1><br><br><br> Please press space as soon as you recall the target.",32,30,9,"CuePresentation",FALSE,"True",1,"","","True","11_8_2023_10_9_34","0hfly3uzy7qnhxp","html-keyboard-response",361,677494,"0.0-361.0","pupil","slicer","hummus",NA,NA,NA,7,NA,NA,NA,NA,NA,0,"True","True",0.500551068441678,3,"Intrusion"
1723,3528.5,"<h1>dress</h1><br><br><br> Please press space as soon as you recall the target.",32,30,10,"CuePresentation",FALSE,"True",1,"","","True","11_8_2023_10_9_34","0hfly3uzy7qnhxp","html-keyboard-response",365,684368,"0.0-365.0","0","dress","radio",NA,NA,NA,4,NA,NA,NA,NA,NA,0,"True","True",0.003992160614718,1,"Omission"
1809,2777.60000000009,"<h1>kiwi</h1><br><br><br> Please press space as soon as you recall the target.",32,8,1,"CuePresentation",TRUE,"True",2,"","","True","11_8_2023_10_9_34","0hfly3uzy7qnhxp","html-keyboard-response",521,989477,"0.0-521.0","apple","kiwi","apple",NA,NA,NA,2,NA,NA,NA,NA,NA,1,"True","True",0.630507650883796,4,"Correct"
1811,2807.69999999972,"<h1>kimono</h1><br><br><br> Please press space as soon as you recall the target.",32,8,2,"CuePresentation",FALSE,"True",2,"","","True","11_8_2023_10_9_34","0hfly3uzy7qnhxp","html-keyboard-response",525,996191,"0.0-525.0","kilt","kimono","locket",NA,NA,NA,4,NA,NA,NA,NA,NA,0,"True","True",0.0103429243642662,1,"Intrusion"
1813,5300,"<h1>quiche</h1><br><br><br> Please press space as soon as you recall the target.",32,8,3,"CuePresentation",FALSE,"True",2,"","","True","11_8_2023_10_9_34","0hfly3uzy7qnhxp","html-keyboard-response",529,1004368,"0.0-529.0","0","quiche","pasta",NA,NA,NA,3,NA,NA,NA,NA,NA,0,"False","True",1.00000006075905,5,"Omission"
1815,3770.09999999963,"<h1>bolt</h1><br><br><br> Please press space as soon as you recall the target.",32,8,4,"CuePresentation",FALSE,"True",2,"","","True","11_8_2023_10_9_34","0hfly3uzy7qnhxp","html-keyboard-response",533,1010698,"0.0-533.0","0","bolt","towel",NA,NA,NA,8,NA,NA,NA,NA,NA,0,"False","True",0.275631401009094,2,"Omission"
1817,5463.79999999981,"<h1>napkin</h1><br><br><br> Please press space as soon as you recall the target.",32,8,5,"CuePresentation",FALSE,"True",2,"","","True","11_8_2023_10_9_34","0hfly3uzy7qnhxp","html-keyboard-response",537,1018550,"0.0-537.0","0","napkin","tinsel",NA,NA,NA,7,NA,NA,NA,NA,NA,0,"True","True",0.433620537301468,3,"Omission"
1819,4031,"<h1>cannon</h1><br><br><br> Please press space as soon as you recall the target.",32,8,6,"CuePresentation",FALSE,"True",2,"","","True","11_8_2023_10_9_34","0hfly3uzy7qnhxp","html-keyboard-response",541,1024951,"0.0-541.0","0","cannon","garlic",NA,NA,NA,6,NA,NA,NA,NA,NA,0,"False","True",0.114988934111725,1,"Omission"
1821,3350,"<h1>donkey</h1><br><br><br> Please press space as soon as you recall the target.",32,8,7,"CuePresentation",FALSE,"True",2,"","","True","11_8_2023_10_9_34","0hfly3uzy7qnhxp","html-keyboard-response",545,1031215,"0.0-545.0","0","donkey","throne",NA,NA,NA,1,NA,NA,NA,NA,NA,0,"False","True",0.108564855475739,1,"Omission"
1823,3694.89999999991,"<h1>walnut</h1><br><br><br> Please press space as soon as you recall the target.",32,8,8,"CuePresentation",FALSE,"True",2,"","","True","11_8_2023_10_9_34","0hfly3uzy7qnhxp","html-keyboard-response",549,1037412,"0.0-549.0","0","walnut","earwig",NA,NA,NA,5,NA,NA,NA,NA,NA,0,"True","True",0.242173377562161,2,"Omission"
1945,5248.89999999991,"<h1>melon</h1><br><br><br> Please press space as soon as you recall the target.",32,20,1,"CuePresentation",FALSE,"True",3,"","","True","11_8_2023_10_9_34","0hfly3uzy7qnhxp","html-keyboard-response",801,1514958,"0.0-801.0","kiwi","melon","radish",NA,NA,NA,12,NA,NA,NA,NA,NA,0,"False","True",0.568227410855373,3,"Intrusion"
1947,1075.70000000019,"<h1>stump</h1><br><br><br> Please press space as soon as you recall the target.",32,20,2,"CuePresentation",TRUE,"True",3,"","","True","11_8_2023_10_9_34","0hfly3uzy7qnhxp","html-keyboard-response",805,1519206,"0.0-805.0","stem","stump","stem",NA,NA,NA,7,NA,NA,NA,NA,NA,1,"True","True",0.402091789020628,3,"Correct"
1949,1463.70000000019,"<h1>bumper</h1><br><br><br> Please press space as soon as you recall the target.",32,20,3,"CuePresentation",TRUE,"True",3,"","","True","11_8_2023_10_9_34","0hfly3uzy7qnhxp","html-keyboard-response",809,1523838,"0.0-809.0","tank","bumper","tank",NA,NA,NA,15,NA,NA,NA,NA,NA,1,"False","True",0.337314081016891,2,"Correct"
1951,2637.79999999981,"<h1>bikini</h1><br><br><br> Please press space as soon as you recall the target.",32,20,4,"CuePresentation",TRUE,"True",3,"","","True","11_8_2023_10_9_34","0hfly3uzy7qnhxp","html-keyboard-response",813,1529932,"0.0-813.0","bison","bikini","bison",NA,NA,NA,13,NA,NA,NA,NA,NA,1,"False","True",0.0439818995812783,1,"Correct"
1953,1193.59999999963,"<h1>banner</h1><br><br><br> Please press space as soon as you recall the target.",32,20,5,"CuePresentation",TRUE,"True",3,"","","True","11_8_2023_10_9_34","0hfly3uzy7qnhxp","html-keyboard-response",817,1534161,"0.0-817.0","flag","banner","flag",NA,NA,NA,14,NA,NA,NA,NA,NA,1,"False","True",0.616673037290324,4,"Correct"
1955,12850.1999999997,"<h1>poppy</h1><br><br><br> Please press space as soon as you recall the target.",32,20,6,"CuePresentation",FALSE,"True",3,"","","True","11_8_2023_10_9_34","0hfly3uzy7qnhxp","html-keyboard-response",821,1550338,"0.0-821.0","0","poppy","crayon",NA,NA,NA,18,NA,NA,NA,NA,NA,0,"False","True",0.237959707772953,2,"Omission"
1957,3908,"<h1>yogurt</h1><br><br><br> Please press space as soon as you recall the target.",32,20,7,"CuePresentation",TRUE,"True",3,"","","True","11_8_2023_10_9_34","0hfly3uzy7qnhxp","html-keyboard-response",825,1556843,"0.0-825.0","cocoon","yogurt","cocoon",NA,NA,NA,2,NA,NA,NA,NA,NA,1,"True","True",0.135617011678999,1,"Correct"
1959,12536,"<h1>squash</h1><br><br><br> Please press space as soon as you recall the target.",32,20,8,"CuePresentation",FALSE,"True",3,"","","True","11_8_2023_10_9_34","0hfly3uzy7qnhxp","html-keyboard-response",829,1573372,"0.0-829.0","stomp","squash","root",NA,NA,NA,4,NA,NA,NA,NA,NA,0,"True","True",0.246029577781375,2,"Intrusion"
1961,3763.5,"<h1>orchid</h1><br><br><br> Please press space as soon as you recall the target.",32,20,9,"CuePresentation",FALSE,"True",3,"","","True","11_8_2023_10_9_34","0hfly3uzy7qnhxp","html-keyboard-response",833,1580851,"0.0-833.0","melon","orchid","flower",NA,NA,NA,9,NA,NA,NA,NA,NA,0,"True","True",1.0000000758957,5,"Intrusion"
1963,16558.3000000003,"<h1>bacon</h1><br><br><br> Please press space as soon as you recall the target.",32,20,10,"CuePresentation",FALSE,"True",3,"","","True","11_8_2023_10_9_34","0hfly3uzy7qnhxp","html-keyboard-response",837,1600541,"0.0-837.0","0","bacon","hotdog",NA,NA,NA,5,NA,NA,NA,NA,NA,0,"True","True",0.654814915149301,4,"Omission"
2055,6103.5,"<h1>teepee</h1><br><br><br> Please press space as soon as you recall the target.",32,10,1,"CuePresentation",FALSE,"True",4,"","","True","11_8_2023_10_9_34","0hfly3uzy7qnhxp","html-keyboard-response",1009,1888602,"0.0-1009.0","0","teepee","stove",NA,NA,NA,9,NA,NA,NA,NA,NA,0,"True","True",0.441684669598265,3,"Omission"
2057,7197.20000000019,"<h1>weed</h1><br><br><br> Please press space as soon as you recall the target.",32,10,2,"CuePresentation",FALSE,"True",4,"","","True","11_8_2023_10_9_34","0hfly3uzy7qnhxp","html-keyboard-response",1013,1898385,"0.0-1013.0","teepee","weed","binder",NA,NA,NA,7,NA,NA,NA,NA,NA,0,"True","True",0.193818930259629,1,"Intrusion"
2059,5554.39999999991,"<h1>bonnet</h1><br><br><br> Please press space as soon as you recall the target.",32,10,3,"CuePresentation",FALSE,"True",4,"","","True","11_8_2023_10_9_34","0hfly3uzy7qnhxp","html-keyboard-response",1017,1907377,"0.0-1017.0","0","bonnet","scoop",NA,NA,NA,10,NA,NA,NA,NA,NA,0,"False","True",0.295501525339056,2,"Omission"
2061,1275.39999999991,"<h1>ship</h1><br><br><br> Please press space as soon as you recall the target.",32,10,4,"CuePresentation",TRUE,"True",4,"","","True","11_8_2023_10_9_34","0hfly3uzy7qnhxp","html-keyboard-response",1021,1911109,"0.0-1021.0","yacht","ship","yacht",NA,NA,NA,1,NA,NA,NA,NA,NA,1,"False","True",0.573249475065072,3,"Correct"
2063,2548.39999999991,"<h1>jacket</h1><br><br><br> Please press space as soon as you recall the target.",32,10,5,"CuePresentation",TRUE,"True",4,"","","True","11_8_2023_10_9_34","0hfly3uzy7qnhxp","html-keyboard-response",1025,1917140,"0.0-1025.0","blazer","jacket","blazer",NA,NA,NA,2,NA,NA,NA,NA,NA,1,"True","True",1.00000002728999,5,"Correct"
2065,4676.89999999991,"<h1>block</h1><br><br><br> Please press space as soon as you recall the target.",32,10,6,"CuePresentation",FALSE,"True",4,"","","True","11_8_2023_10_9_34","0hfly3uzy7qnhxp","html-keyboard-response",1029,1926857,"0.0-1029.0","breeze","block","kayak",NA,NA,NA,4,NA,NA,NA,NA,NA,0,"True","True",0.234036216185256,2,"Intrusion"
2067,6961.39999999991,"<h1>sundae</h1><br><br><br> Please press space as soon as you recall the target.",32,10,7,"CuePresentation",TRUE,"True",4,"","","True","11_8_2023_10_9_34","0hfly3uzy7qnhxp","html-keyboard-response",1033,1937175,"0.0-1033.0","sushi","sundae","sushi",NA,NA,NA,5,NA,NA,NA,NA,NA,1,"True","True",0.610210725864509,4,"Correct"
2069,1100.29999999981,"<h1>mouth</h1><br><br><br> Please press space as soon as you recall the target.",32,10,8,"CuePresentation",TRUE,"True",4,"","","True","11_8_2023_10_9_34","0hfly3uzy7qnhxp","html-keyboard-response",1037,1941541,"0.0-1037.0","nose","mouth","nose",NA,NA,NA,8,NA,NA,NA,NA,NA,1,"False","True",0.661824468395778,4,"Correct"
2071,1324.5,"<h1>globe</h1><br><br><br> Please press space as soon as you recall the target.",32,10,9,"CuePresentation",TRUE,"True",4,"","","True","11_8_2023_10_9_34","0hfly3uzy7qnhxp","html-keyboard-response",1041,1946328,"0.0-1041.0","coal","globe","coal",NA,NA,NA,3,NA,NA,NA,NA,NA,1,"False","True",0.0521687423182363,1,"Correct"
2073,1081.20000000019,"<h1>zipper</h1><br><br><br> Please press space as soon as you recall the target.",32,10,10,"CuePresentation",FALSE,"True",4,"","","True","11_8_2023_10_9_34","0hfly3uzy7qnhxp","html-keyboard-response",1045,1950115,"0.0-1045.0","bluckel","zipper","buckle",NA,NA,NA,6,NA,NA,NA,NA,NA,0,"False","True",0.948896955583809,5,"Misspelled Intrusion"
2226,4778,"<h1>possum</h1><br><br><br> Please press space as soon as you recall the target.",32,30,1,"CuePresentation",FALSE,"True",1,"","","True","29_8_2023_13_37_33","185sj0p6eo8tfyo","html-keyboard-response",329,595942,"0.0-329.0","hum","possum","slime",NA,NA,NA,6,NA,NA,NA,NA,NA,0,"False","False",0.299240600347622,2,"Intrusion"
2228,9442,"<h1>cocoon</h1><br><br><br> Please press space as soon as you recall the target.",32,30,2,"CuePresentation",FALSE,"True",1,"","","True","29_8_2023_13_37_33","185sj0p6eo8tfyo","html-keyboard-response",333,608874,"0.0-333.0","racoon","cocoon","yogurt",NA,NA,NA,14,NA,NA,NA,NA,NA,0,"False","False",0.135617011678999,1,"Intrusion"
2230,15738,"<h1>dress</h1><br><br><br> Please press space as soon as you recall the target.",32,30,3,"CuePresentation",FALSE,"True",1,"","","True","29_8_2023_13_37_33","185sj0p6eo8tfyo","html-keyboard-response",337,629426,"0.0-337.0","hel","dress","radio",NA,NA,NA,13,NA,NA,NA,NA,NA,0,"False","False",0.003992160614718,1,"Misspelled Intrusion"
2232,3124,"<h1>leash</h1><br><br><br> Please press space as soon as you recall the target.",32,30,4,"CuePresentation",FALSE,"True",1,"","","True","29_8_2023_13_37_33","185sj0p6eo8tfyo","html-keyboard-response",341,636981,"0.0-341.0","quiche","leash","drink",NA,NA,NA,5,NA,NA,NA,NA,NA,0,"True","False",0.108463556475143,1,"Intrusion"
2234,3029,"<h1>seed</h1><br><br><br> Please press space as soon as you recall the target.",32,30,5,"CuePresentation",FALSE,"True",1,"","","True","29_8_2023_13_37_33","185sj0p6eo8tfyo","html-keyboard-response",345,644381,"0.0-345.0","plant","seed","leaf",NA,NA,NA,4,NA,NA,NA,NA,NA,0,"True","False",0.449197073479032,3,"Intrusion"
2236,12918.9999999999,"<h1>crutch</h1><br><br><br> Please press space as soon as you recall the target.",32,30,6,"CuePresentation",FALSE,"True",1,"","","True","29_8_2023_13_37_33","185sj0p6eo8tfyo","html-keyboard-response",349,662012,"0.0-349.0","limp","crutch","camel",NA,NA,NA,7,NA,NA,NA,NA,NA,0,"True","False",0.366853562408624,2,"Intrusion"
2238,10185,"<h1>sandal</h1><br><br><br> Please press space as soon as you recall the target.",32,30,7,"CuePresentation",FALSE,"True",1,"","","True","29_8_2023_13_37_33","185sj0p6eo8tfyo","html-keyboard-response",353,675391,"0.0-353.0","beach","sandal","insole",NA,NA,NA,3,NA,NA,NA,NA,NA,0,"False","False",0.854520532339466,5,"Intrusion"
2240,2530.00000000012,"<h1>blazer</h1><br><br><br> Please press space as soon as you recall the target.",32,30,8,"CuePresentation",FALSE,"True",1,"","","True","29_8_2023_13_37_33","185sj0p6eo8tfyo","html-keyboard-response",357,681674,"0.0-357.0","dress","blazer","jacket",NA,NA,NA,9,NA,NA,NA,NA,NA,0,"True","False",1.00000002728999,5,"Intrusion"
2242,2596,"<h1>barrel</h1><br><br><br> Please press space as soon as you recall the target.",32,30,9,"CuePresentation",FALSE,"True",1,"","","True","29_8_2023_13_37_33","185sj0p6eo8tfyo","html-keyboard-response",361,690504,"0.0-361.0","arrow","barrel","crane",NA,NA,NA,24,NA,NA,NA,NA,NA,0,"False","False",0.375189052412563,2,"Intrusion"
2244,7282,"<h1>vial</h1><br><br><br> Please press space as soon as you recall the target.",32,30,10,"CuePresentation",FALSE,"True",1,"","","True","29_8_2023_13_37_33","185sj0p6eo8tfyo","html-keyboard-response",365,702097,"0.0-365.0","possum","vial","goblet",NA,NA,NA,2,NA,NA,NA,NA,NA,0,"True","False",0.665338846800113,4,"Intrusion"
2366,4110,"<h1>napkin</h1><br><br><br> Please press space as soon as you recall the target.",32,20,1,"CuePresentation",TRUE,"True",2,"","","True","29_8_2023_13_37_33","185sj0p6eo8tfyo","html-keyboard-response",617,1150904,"0.0-617.0","tinsel","napkin","tinsel",NA,NA,NA,5,NA,NA,NA,NA,NA,1,"True","False",0.433620537301468,3,"Correct"
2368,8515,"<h1>fudge</h1><br><br><br> Please press space as soon as you recall the target.",32,20,2,"CuePresentation",FALSE,"True",2,"","","True","29_8_2023_13_37_33","185sj0p6eo8tfyo","html-keyboard-response",621,1164193,"0.0-621.0","quinua","fudge","rifle",NA,NA,NA,8,NA,NA,NA,NA,NA,0,"False","False",0.0253189744766434,1,"Misspelled Intrusion"
2370,1332,"<h1>potato</h1><br><br><br> Please press space as soon as you recall the target.",32,20,3,"CuePresentation",TRUE,"True",2,"","","True","29_8_2023_13_37_33","185sj0p6eo8tfyo","html-keyboard-response",625,1172534,"0.0-625.0","chips","potato","chips",NA,NA,NA,4,NA,NA,NA,NA,NA,1,"True","False",0.603917424192587,4,"Correct"
2372,11101,"<h1>moose</h1><br><br><br> Please press space as soon as you recall the target.",32,20,4,"CuePresentation",FALSE,"True",2,"","","True","29_8_2023_13_37_33","185sj0p6eo8tfyo","html-keyboard-response",629,1189942,"0.0-629.0","snake","moose","cactus",NA,NA,NA,3,NA,NA,NA,NA,NA,0,"False","False",0.346216021008962,2,"Intrusion"
2374,5610,"<h1>crank</h1><br><br><br> Please press space as soon as you recall the target.",32,20,5,"CuePresentation",FALSE,"True",2,"","","True","29_8_2023_13_37_33","185sj0p6eo8tfyo","html-keyboard-response",633,1200097,"0.0-633.0","crn","crank","pulley",NA,NA,NA,9,NA,NA,NA,NA,NA,0,"True","False",0.999999982961594,5,"Misspelled Intrusion"
2376,2494,"<h1>kite</h1><br><br><br> Please press space as soon as you recall the target.",32,20,6,"CuePresentation",FALSE,"True",2,"","","True","29_8_2023_13_37_33","185sj0p6eo8tfyo","html-keyboard-response",637,1205985,"0.0-637.0","noose","kite","record",NA,NA,NA,13,NA,NA,NA,NA,NA,0,"False","False",0.150266880798289,1,"Intrusion"
2378,1795,"<h1>otter</h1><br><br><br> Please press space as soon as you recall the target.",32,20,7,"CuePresentation",FALSE,"True",2,"","","True","29_8_2023_13_37_33","185sj0p6eo8tfyo","html-keyboard-response",641,1211177,"0.0-641.0","moose","otter","iguana",NA,NA,NA,1,NA,NA,NA,NA,NA,0,"False","False",0.866536373711664,5,"Intrusion"
2380,2525,"<h1>pipe</h1><br><br><br> Please press space as soon as you recall the target.",32,20,8,"CuePresentation",FALSE,"True",2,"","","True","29_8_2023_13_37_33","185sj0p6eo8tfyo","html-keyboard-response",645,1217278,"0.0-645.0","drain","pipe","paper",NA,NA,NA,20,NA,NA,NA,NA,NA,0,"False","False",0.258097566940599,2,"Intrusion"
2382,6012.99999999977,"<h1>prism</h1><br><br><br> Please press space as soon as you recall the target.",32,20,9,"CuePresentation",FALSE,"True",2,"","","True","29_8_2023_13_37_33","185sj0p6eo8tfyo","html-keyboard-response",649,1227546,"0.0-649.0","jewel","prism","ring",NA,NA,NA,7,NA,NA,NA,NA,NA,0,"True","False",0.359066430514316,2,"Intrusion"
2384,4255,"<h1>lens</h1><br><br><br> Please press space as soon as you recall the target.",32,20,10,"CuePresentation",FALSE,"True",2,"","","True","29_8_2023_13_37_33","185sj0p6eo8tfyo","html-keyboard-response",653,1235578,"0.0-653.0","camera","lens","crepe",NA,NA,NA,2,NA,NA,NA,NA,NA,0,"True","False",0.0896239999584382,1,"Intrusion"
2476,2083,"<h1>boar</h1><br><br><br> Please press space as soon as you recall the target.",32,10,1,"CuePresentation",FALSE,"True",3,"","","True","29_8_2023_13_37_33","185sj0p6eo8tfyo","html-keyboard-response",825,1544049,"0.0-825.0","moat","boar","coat",NA,NA,NA,10,NA,NA,NA,NA,NA,0,"False","False",0.281532111177466,2,"Intrusion"
2478,1357,"<h1>prune</h1><br><br><br> Please press space as soon as you recall the target.",32,10,2,"CuePresentation",FALSE,"True",3,"","","True","29_8_2023_13_37_33","185sj0p6eo8tfyo","html-keyboard-response",829,1548570,"0.0-829.0","juice","prune","thorn",NA,NA,NA,1,NA,NA,NA,NA,NA,0,"False","False",0.999999978936332,5,"Intrusion"
2480,5742.00000000023,"<h1>makeup</h1><br><br><br> Please press space as soon as you recall the target.",32,10,3,"CuePresentation",FALSE,"True",3,"","","True","29_8_2023_13_37_33","185sj0p6eo8tfyo","html-keyboard-response",833,1557419,"0.0-833.0","book","makeup","paint",NA,NA,NA,8,NA,NA,NA,NA,NA,0,"False","False",0.505935810169567,3,"Intrusion"
2482,4222,"<h1>folder</h1><br><br><br> Please press space as soon as you recall the target.",32,10,4,"CuePresentation",FALSE,"True",3,"","","True","29_8_2023_13_37_33","185sj0p6eo8tfyo","html-keyboard-response",837,1565486,"0.0-837.0","moat","folder","file",NA,NA,NA,6,NA,NA,NA,NA,NA,0,"False","False",0.761074923120327,4,"Intrusion"
2484,3014.99999999977,"<h1>bucket</h1><br><br><br> Please press space as soon as you recall the target.",32,10,5,"CuePresentation",FALSE,"True",3,"","","True","29_8_2023_13_37_33","185sj0p6eo8tfyo","html-keyboard-response",841,1571770,"0.0-841.0","moat","bucket","shovel",NA,NA,NA,9,NA,NA,NA,NA,NA,0,"True","False",1.00000008526887,5,"Intrusion"
2486,3429,"<h1>shorts</h1><br><br><br> Please press space as soon as you recall the target.",32,10,6,"CuePresentation",FALSE,"True",3,"","","True","29_8_2023_13_37_33","185sj0p6eo8tfyo","html-keyboard-response",845,1580685,"0.0-845.0","jute","shorts","raft",NA,NA,NA,4,NA,NA,NA,NA,NA,0,"True","False",0.213414433174442,2,"Intrusion"
2488,8994,"<h1>weed</h1><br><br><br> Please press space as soon as you recall the target.",32,10,7,"CuePresentation",FALSE,"True",3,"","","True","29_8_2023_13_37_33","185sj0p6eo8tfyo","html-keyboard-response",849,1592957,"0.0-849.0","boar","weed","binder",NA,NA,NA,2,NA,NA,NA,NA,NA,0,"True","False",0.193818930259629,1,"Intrusion"
2490,2351.00000000023,"<h1>toilet</h1><br><br><br> Please press space as soon as you recall the target.",32,10,8,"CuePresentation",FALSE,"True",3,"","","True","29_8_2023_13_37_33","185sj0p6eo8tfyo","html-keyboard-response",853,1599032,"0.0-853.0","bowl","toilet","desk",NA,NA,NA,7,NA,NA,NA,NA,NA,0,"True","False",0.427165723387472,3,"Intrusion"
2492,4734,"<h1>sponge</h1><br><br><br> Please press space as soon as you recall the target.",32,10,9,"CuePresentation",FALSE,"True",3,"","","True","29_8_2023_13_37_33","185sj0p6eo8tfyo","html-keyboard-response",857,1606904,"0.0-857.0","shorts","sponge","watch",NA,NA,NA,3,NA,NA,NA,NA,NA,0,"False","False",0.17659200800734,1,"Intrusion"
2494,6988.99999999977,"<h1>sundae</h1><br><br><br> Please press space as soon as you recall the target.",32,10,10,"CuePresentation",FALSE,"True",3,"","","True","29_8_2023_13_37_33","185sj0p6eo8tfyo","html-keyboard-response",861,1617789,"0.0-861.0","seeds","sundae","sushi",NA,NA,NA,5,NA,NA,NA,NA,NA,0,"True","False",0.610210725864509,4,"Intrusion"
2580,15446,"<h1>eagle</h1><br><br><br> Please press space as soon as you recall the target.",32,8,1,"CuePresentation",FALSE,"True",4,"","","True","29_8_2023_13_37_33","185sj0p6eo8tfyo","html-keyboard-response",1017,1901005,"0.0-1017.0","brach","eagle","hawk",NA,NA,NA,6,NA,NA,NA,NA,NA,0,"False","False",1.00000004736111,5,"Intrusion"
2582,8171,"<h1>stem</h1><br><br><br> Please press space as soon as you recall the target.",32,8,2,"CuePresentation",FALSE,"True",4,"","","True","29_8_2023_13_37_33","185sj0p6eo8tfyo","html-keyboard-response",1021,1913104,"0.0-1021.0","cream","stem","stump",NA,NA,NA,2,NA,NA,NA,NA,NA,0,"True","False",0.402091789020628,3,"Intrusion"
2584,7570,"<h1>target</h1><br><br><br> Please press space as soon as you recall the target.",32,8,3,"CuePresentation",FALSE,"True",4,"","","True","29_8_2023_13_37_33","185sj0p6eo8tfyo","html-keyboard-response",1025,1924835,"0.0-1025.0","leech","target","clasp",NA,NA,NA,3,NA,NA,NA,NA,NA,0,"False","False",0.263086746212108,2,"Intrusion"
2586,6523,"<h1>monkey</h1><br><br><br> Please press space as soon as you recall the target.",32,8,4,"CuePresentation",FALSE,"True",4,"","","True","29_8_2023_13_37_33","185sj0p6eo8tfyo","html-keyboard-response",1029,1934717,"0.0-1029.0","practice","monkey","grill",NA,NA,NA,5,NA,NA,NA,NA,NA,0,"True","False",0.0769030395339553,1,"Intrusion"
2588,13713,"<h1>pepper</h1><br><br><br> Please press space as soon as you recall the target.",32,8,5,"CuePresentation",FALSE,"True",4,"","","True","29_8_2023_13_37_33","185sj0p6eo8tfyo","html-keyboard-response",1033,1954068,"0.0-1033.0","breach","pepper","game",NA,NA,NA,1,NA,NA,NA,NA,NA,0,"False","False",0.0586781382709476,1,"Intrusion"
2590,3541,"<h1>donkey</h1><br><br><br> Please press space as soon as you recall the target.",32,8,6,"CuePresentation",FALSE,"True",4,"","","True","29_8_2023_13_37_33","185sj0p6eo8tfyo","html-keyboard-response",1037,1963576,"0.0-1037.0","monkey","donkey","throne",NA,NA,NA,8,NA,NA,NA,NA,NA,0,"False","False",0.108564855475739,1,"Intrusion"
2592,2237,"<h1>bolt</h1><br><br><br> Please press space as soon as you recall the target.",32,8,7,"CuePresentation",FALSE,"True",4,"","","True","29_8_2023_13_37_33","185sj0p6eo8tfyo","html-keyboard-response",1041,1970871,"0.0-1041.0","noose","bolt","towel",NA,NA,NA,7,NA,NA,NA,NA,NA,0,"True","False",0.275631401009094,2,"Intrusion"
2594,2266,"<h1>tiara</h1><br><br><br> Please press space as soon as you recall the target.",32,8,8,"CuePresentation",TRUE,"True",4,"","","True","29_8_2023_13_37_33","185sj0p6eo8tfyo","html-keyboard-response",1045,1976243,"0.0-1045.0","kilt","tiara","kilt",NA,NA,NA,4,NA,NA,NA,NA,NA,1,"True","False",0.750416700964624,4,"Correct"
2699,660.599999964237,"<h1>folder</h1><br><br><br> Please press space as soon as you recall the target.",32,14,1,"CuePresentation",TRUE,"True",1,"","","True","8_8_2023_9_10_3","1es7mkttar25fxg","html-keyboard-response",201,392261,"0.0-201.0","file","folder","file",NA,NA,NA,9,NA,NA,NA,NA,NA,1,"True","True",0.761074923120327,4,"Correct"
2701,1101.69999998808,"<h1>binder</h1><br><br><br> Please press space as soon as you recall the target.",32,14,2,"CuePresentation",TRUE,"True",1,"","","True","8_8_2023_9_10_3","1es7mkttar25fxg","html-keyboard-response",205,396301,"0.0-205.0","weed","binder","weed",NA,NA,NA,1,NA,NA,NA,NA,NA,1,"False","True",0.193818930259629,1,"Correct"
2703,1334.70000004768,"<h1>gravy</h1><br><br><br> Please press space as soon as you recall the target.",32,14,3,"CuePresentation",TRUE,"True",1,"","","True","8_8_2023_9_10_3","1es7mkttar25fxg","html-keyboard-response",209,400405,"0.0-209.0","grits","gravy","grits",NA,NA,NA,3,NA,NA,NA,NA,NA,1,"False","True",0.999999922215502,5,"Correct"
2705,1407.19999998808,"<h1>kite</h1><br><br><br> Please press space as soon as you recall the target.",32,14,4,"CuePresentation",TRUE,"True",1,"","","True","8_8_2023_9_10_3","1es7mkttar25fxg","html-keyboard-response",213,404550,"0.0-213.0","record","kite","record",NA,NA,NA,4,NA,NA,NA,NA,NA,1,"True","True",0.150266880798289,1,"Correct"
2707,605.299999952316,"<h1>boar</h1><br><br><br> Please press space as soon as you recall the target.",32,14,5,"CuePresentation",TRUE,"True",1,"","","True","8_8_2023_9_10_3","1es7mkttar25fxg","html-keyboard-response",217,407992,"0.0-217.0","coat","boar","coat",NA,NA,NA,6,NA,NA,NA,NA,NA,1,"False","True",0.281532111177466,2,"Correct"
2709,626.699999988079,"<h1>alpaca</h1><br><br><br> Please press space as soon as you recall the target.",32,14,6,"CuePresentation",TRUE,"True",1,"","","True","8_8_2023_9_10_3","1es7mkttar25fxg","html-keyboard-response",221,411867,"0.0-221.0","yarn","alpaca","yarn",NA,NA,NA,13,NA,NA,NA,NA,NA,1,"False","True",0.730008656413105,4,"Correct"
2711,724.5,"<h1>juice</h1><br><br><br> Please press space as soon as you recall the target.",32,14,7,"CuePresentation",TRUE,"True",1,"","","True","8_8_2023_9_10_3","1es7mkttar25fxg","html-keyboard-response",225,416961,"0.0-225.0","soda","juice","soda",NA,NA,NA,12,NA,NA,NA,NA,NA,1,"False","True",0.636879768274072,4,"Correct"
2713,1960.30000001192,"<h1>chip</h1><br><br><br> Please press space as soon as you recall the target.",32,14,8,"CuePresentation",TRUE,"True",1,"","","True","8_8_2023_9_10_3","1es7mkttar25fxg","html-keyboard-response",229,421565,"0.0-229.0","tablet","chip","tablet",NA,NA,NA,7,NA,NA,NA,NA,NA,1,"True","True",0.423135805458718,3,"Correct"
2715,861.699999988079,"<h1>quiche</h1><br><br><br> Please press space as soon as you recall the target.",32,14,9,"CuePresentation",TRUE,"True",1,"","","True","8_8_2023_9_10_3","1es7mkttar25fxg","html-keyboard-response",233,425676,"0.0-233.0","pasta","quiche","pasta",NA,NA,NA,5,NA,NA,NA,NA,NA,1,"True","True",1.00000006075905,5,"Correct"
2717,4759.60000002384,"<h1>blind</h1><br><br><br> Please press space as soon as you recall the target.",32,14,10,"CuePresentation",FALSE,"True",1,"","","True","8_8_2023_9_10_3","1es7mkttar25fxg","html-keyboard-response",237,434017,"0.0-237.0","","blind","switch",NA,NA,NA,2,NA,NA,NA,NA,NA,0,"True","True",0.252173754849272,2,"Omission"
2851,4901.19999998808,"<h1>moth</h1><br><br><br> Please press space as soon as you recall the target.",32,24,1,"CuePresentation",FALSE,"True",2,"","","True","8_8_2023_9_10_3","1es7mkttar25fxg","html-keyboard-response",521,968229,"0.0-521.0","linen","moth","fungus",NA,NA,NA,16,NA,NA,NA,NA,NA,0,"False","True",0.421186232744235,3,"Intrusion"
2853,6612.69999998808,"<h1>coyote</h1><br><br><br> Please press space as soon as you recall the target.",32,24,2,"CuePresentation",FALSE,"True",2,"","","True","8_8_2023_9_10_3","1es7mkttar25fxg","html-keyboard-response",525,978341,"0.0-525.0","0","coyote","cobra",NA,NA,NA,9,NA,NA,NA,NA,NA,0,"True","True",0.579578025639824,3,"Omission"
2855,841.199999988079,"<h1>nose</h1><br><br><br> Please press space as soon as you recall the target.",32,24,3,"CuePresentation",TRUE,"True",2,"","","True","8_8_2023_9_10_3","1es7mkttar25fxg","html-keyboard-response",529,981850,"0.0-529.0","mouth","nose","mouth",NA,NA,NA,1,NA,NA,NA,NA,NA,1,"False","True",0.661824468395778,4,"Correct"
2857,3393.19999998808,"<h1>crane</h1><br><br><br> Please press space as soon as you recall the target.",32,24,4,"CuePresentation",TRUE,"True",2,"","","True","8_8_2023_9_10_3","1es7mkttar25fxg","html-keyboard-response",533,988277,"0.0-533.0","barrel","crane","barrel",NA,NA,NA,5,NA,NA,NA,NA,NA,1,"True","True",0.375189052412563,2,"Correct"
2859,765.899999976158,"<h1>jersey</h1><br><br><br> Please press space as soon as you recall the target.",32,24,5,"CuePresentation",TRUE,"True",2,"","","True","8_8_2023_9_10_3","1es7mkttar25fxg","html-keyboard-response",537,991957,"0.0-537.0","shirt","jersey","shirt",NA,NA,NA,17,NA,NA,NA,NA,NA,1,"False","True",0.649010826232407,4,"Correct"
2861,3390.20000004768,"<h1>chili</h1><br><br><br> Please press space as soon as you recall the target.",32,24,6,"CuePresentation",FALSE,"True",2,"","","True","8_8_2023_9_10_3","1es7mkttar25fxg","html-keyboard-response",541,998058,"0.0-541.0","crayon","chili","clove",NA,NA,NA,22,NA,NA,NA,NA,NA,0,"False","True",0.713132070649667,4,"Intrusion"
2863,1852,"<h1>slime</h1><br><br><br> Please press space as soon as you recall the target.",32,24,7,"CuePresentation",TRUE,"True",2,"","","True","8_8_2023_9_10_3","1es7mkttar25fxg","html-keyboard-response",545,1003100,"0.0-545.0","possum","slime","possum",NA,NA,NA,3,NA,NA,NA,NA,NA,1,"False","True",0.299240600347622,2,"Correct"
2865,2849.60000002384,"<h1>flag</h1><br><br><br> Please press space as soon as you recall the target.",32,24,8,"CuePresentation",FALSE,"True",2,"","","True","8_8_2023_9_10_3","1es7mkttar25fxg","html-keyboard-response",549,1009150,"0.0-549.0","0","flag","banner",NA,NA,NA,4,NA,NA,NA,NA,NA,0,"True","True",0.616673037290324,4,"Omission"
2867,1051.89999997616,"<h1>insole</h1><br><br><br> Please press space as soon as you recall the target.",32,24,9,"CuePresentation",FALSE,"True",2,"","","True","8_8_2023_9_10_3","1es7mkttar25fxg","html-keyboard-response",553,1012749,"0.0-553.0","shoe","insole","sandal",NA,NA,NA,2,NA,NA,NA,NA,NA,0,"True","True",0.854520532339466,5,"Intrusion"
2869,7129.80000001192,"<h1>beard</h1><br><br><br> Please press space as soon as you recall the target.",32,24,10,"CuePresentation",TRUE,"True",2,"","","True","8_8_2023_9_10_3","1es7mkttar25fxg","html-keyboard-response",557,1022491,"0.0-557.0","puck","beard","puck",NA,NA,NA,7,NA,NA,NA,NA,NA,1,"True","True",0.158674531855931,1,"Correct"
2943,2970,"<h1>chime</h1><br><br><br> Please press space as soon as you recall the target.",32,4,1,"CuePresentation",TRUE,"True",3,"","","True","8_8_2023_9_10_3","1es7mkttar25fxg","html-keyboard-response",681,1268138,"0.0-681.0","cape","chime","cape",NA,NA,NA,4,NA,NA,NA,NA,NA,1,"True","True",0.257361994057368,2,"Correct"
2945,969.300000011921,"<h1>bonsai</h1><br><br><br> Please press space as soon as you recall the target.",32,4,2,"CuePresentation",TRUE,"True",3,"","","True","8_8_2023_9_10_3","1es7mkttar25fxg","html-keyboard-response",685,1271801,"0.0-685.0","tulip","bonsai","tulip",NA,NA,NA,3,NA,NA,NA,NA,NA,1,"False","True",0.549562972213874,3,"Correct"
2947,1069.69999998808,"<h1>sink</h1><br><br><br> Please press space as soon as you recall the target.",32,4,3,"CuePresentation",TRUE,"True",3,"","","True","8_8_2023_9_10_3","1es7mkttar25fxg","html-keyboard-response",689,1277111,"0.0-689.0","drain","sink","drain",NA,NA,NA,1,NA,NA,NA,NA,NA,1,"False","True",0.631240283731934,4,"Correct"
2949,3734.89999997616,"<h1>coal</h1><br><br><br> Please press space as soon as you recall the target.",32,4,4,"CuePresentation",TRUE,"True",3,"","","True","8_8_2023_9_10_3","1es7mkttar25fxg","html-keyboard-response",693,1283548,"0.0-693.0","globe","coal","globe",NA,NA,NA,2,NA,NA,NA,NA,NA,1,"True","True",0.0521687423182363,1,"Correct"
3089,2578.20000004768,"<h1>thorn</h1><br><br><br> Please press space as soon as you recall the target.",32,26,1,"CuePresentation",FALSE,"True",4,"","","True","8_8_2023_9_10_3","1es7mkttar25fxg","html-keyboard-response",993,1880350,"0.0-993.0","rose","thorn","prune",NA,NA,NA,5,NA,NA,NA,NA,NA,0,"True","True",0.999999978936332,5,"Intrusion"
3091,1719.80000001192,"<h1>root</h1><br><br><br> Please press space as soon as you recall the target.",32,26,2,"CuePresentation",TRUE,"True",4,"","","True","8_8_2023_9_10_3","1es7mkttar25fxg","html-keyboard-response",997,1884882,"0.0-997.0","squash","root","squash",NA,NA,NA,26,NA,NA,NA,NA,NA,1,"False","True",0.246029577781375,2,"Correct"
3093,1203.80000001192,"<h1>arrow</h1><br><br><br> Please press space as soon as you recall the target.",32,26,3,"CuePresentation",TRUE,"True",4,"","","True","8_8_2023_9_10_3","1es7mkttar25fxg","html-keyboard-response",1001,1889567,"0.0-1001.0","walrus","arrow","walrus",NA,NA,NA,24,NA,NA,NA,NA,NA,1,"False","True",0.213526926688011,2,"Correct"
3095,1571.09999996424,"<h1>powder</h1><br><br><br> Please press space as soon as you recall the target.",32,26,4,"CuePresentation",TRUE,"True",4,"","","True","8_8_2023_9_10_3","1es7mkttar25fxg","html-keyboard-response",1005,1894275,"0.0-1005.0","floss","powder","floss",NA,NA,NA,19,NA,NA,NA,NA,NA,1,"False","True",0.48735431534364,3,"Correct"
3097,865.199999988079,"<h1>cello</h1><br><br><br> Please press space as soon as you recall the target.",32,26,5,"CuePresentation",TRUE,"True",4,"","","True","8_8_2023_9_10_3","1es7mkttar25fxg","html-keyboard-response",1009,1897839,"0.0-1009.0","violin","cello","violin",NA,NA,NA,21,NA,NA,NA,NA,NA,1,"False","True",0.808485246694099,5,"Correct"
3099,973.800000011921,"<h1>cherry</h1><br><br><br> Please press space as soon as you recall the target.",32,26,6,"CuePresentation",TRUE,"True",4,"","","True","8_8_2023_9_10_3","1es7mkttar25fxg","html-keyboard-response",1013,1902915,"0.0-1013.0","bedpan","cherry","bedpan",NA,NA,NA,4,NA,NA,NA,NA,NA,1,"True","True",0.0764883243696982,1,"Correct"
3101,1909.09999996424,"<h1>clay</h1><br><br><br> Please press space as soon as you recall the target.",32,26,7,"CuePresentation",TRUE,"True",4,"","","True","8_8_2023_9_10_3","1es7mkttar25fxg","html-keyboard-response",1017,1908064,"0.0-1017.0","tick","clay","tick",NA,NA,NA,13,NA,NA,NA,NA,NA,1,"False","True",0.0153055198591734,1,"Correct"
3103,1291.69999998808,"<h1>tiara</h1><br><br><br> Please press space as soon as you recall the target.",32,26,8,"CuePresentation",TRUE,"True",4,"","","True","8_8_2023_9_10_3","1es7mkttar25fxg","html-keyboard-response",1021,1912078,"0.0-1021.0","kilt","tiara","kilt",NA,NA,NA,7,NA,NA,NA,NA,NA,1,"True","True",0.750416700964624,4,"Correct"
3105,5849,"<h1>block</h1><br><br><br> Please press space as soon as you recall the target.",32,26,9,"CuePresentation",FALSE,"True",4,"","","True","8_8_2023_9_10_3","1es7mkttar25fxg","html-keyboard-response",1025,1920804,"0.0-1025.0","0","block","kayak",NA,NA,NA,9,NA,NA,NA,NA,NA,0,"True","True",0.234036216185256,2,"Omission"
3107,1735.59999996424,"<h1>paint</h1><br><br><br> Please press space as soon as you recall the target.",32,26,10,"CuePresentation",FALSE,"True",4,"","","True","8_8_2023_9_10_3","1es7mkttar25fxg","html-keyboard-response",1029,1926051,"0.0-1029.0","0","paint","makeup",NA,NA,NA,2,NA,NA,NA,NA,NA,0,"True","True",0.505935810169567,3,"Omission"
3212,2890.30000001192,"<h1>teepee</h1><br><br><br> Please press space as soon as you recall the target.",32,14,1,"CuePresentation",TRUE,"True",1,"","","True","27_8_2023_13_39_55","1q549h1ymr6ts9q","html-keyboard-response",201,394486,"0.0-201.0","stove","teepee","stove",NA,NA,NA,14,NA,NA,NA,NA,NA,1,"False","True",0.441684669598265,3,"Correct"
3214,1251.39999997616,"<h1>knife</h1><br><br><br> Please press space as soon as you recall the target.",32,14,2,"CuePresentation",TRUE,"True",1,"","","True","27_8_2023_13_39_55","1q549h1ymr6ts9q","html-keyboard-response",205,398671,"0.0-205.0","sheath","knife","sheath",NA,NA,NA,8,NA,NA,NA,NA,NA,1,"False","True",0.735375776651981,4,"Correct"
3216,945.300000011921,"<h1>jersey</h1><br><br><br> Please press space as soon as you recall the target.",32,14,3,"CuePresentation",FALSE,"True",1,"","","True","27_8_2023_13_39_55","1q549h1ymr6ts9q","html-keyboard-response",209,402713,"0.0-209.0","shrit","jersey","shirt",NA,NA,NA,9,NA,NA,NA,NA,NA,0,"True","True",0.649010826232407,4,"Misspelled Intrusion"
3218,1523.5,"<h1>puddle</h1><br><br><br> Please press space as soon as you recall the target.",32,14,4,"CuePresentation",TRUE,"True",1,"","","True","27_8_2023_13_39_55","1q549h1ymr6ts9q","html-keyboard-response",213,407042,"0.0-213.0","sand","puddle","sand",NA,NA,NA,3,NA,NA,NA,NA,NA,1,"False","True",0.676405431577326,4,"Correct"
3220,3360.90000000596,"<h1>scoop</h1><br><br><br> Please press space as soon as you recall the target.",32,14,5,"CuePresentation",FALSE,"True",1,"","","True","27_8_2023_13_39_55","1q549h1ymr6ts9q","html-keyboard-response",217,414234,"0.0-217.0","o","scoop","bonnet",NA,NA,NA,7,NA,NA,NA,NA,NA,0,"True","True",0.295501525339056,2,"unspecified"
3222,3000.60000002384,"<h1>beard</h1><br><br><br> Please press space as soon as you recall the target.",32,14,6,"CuePresentation",TRUE,"True",1,"","","True","27_8_2023_13_39_55","1q549h1ymr6ts9q","html-keyboard-response",221,419409,"0.0-221.0","puck","beard","puck",NA,NA,NA,2,NA,NA,NA,NA,NA,1,"True","True",0.158674531855931,1,"Correct"
3224,1501,"<h1>pear</h1><br><br><br> Please press space as soon as you recall the target.",32,14,7,"CuePresentation",TRUE,"True",1,"","","True","27_8_2023_13_39_55","1q549h1ymr6ts9q","html-keyboard-response",225,423760,"0.0-225.0","berry","pear","berry",NA,NA,NA,6,NA,NA,NA,NA,NA,1,"False","True",0.83115578987111,5,"Correct"
3226,2047.80000001192,"<h1>stump</h1><br><br><br> Please press space as soon as you recall the target.",32,14,8,"CuePresentation",TRUE,"True",1,"","","True","27_8_2023_13_39_55","1q549h1ymr6ts9q","html-keyboard-response",229,428979,"0.0-229.0","stem","stump","stem",NA,NA,NA,4,NA,NA,NA,NA,NA,1,"True","True",0.402091789020628,3,"Correct"
3228,1447.19999998808,"<h1>grits</h1><br><br><br> Please press space as soon as you recall the target.",32,14,9,"CuePresentation",TRUE,"True",1,"","","True","27_8_2023_13_39_55","1q549h1ymr6ts9q","html-keyboard-response",233,434829,"0.0-233.0","gravy","grits","gravy",NA,NA,NA,5,NA,NA,NA,NA,NA,1,"True","True",0.999999922215502,5,"Correct"
3230,4019.80000001192,"<h1>bonsai</h1><br><br><br> Please press space as soon as you recall the target.",32,14,10,"CuePresentation",FALSE,"True",1,"","","True","27_8_2023_13_39_55","1q549h1ymr6ts9q","html-keyboard-response",237,442195,"0.0-237.0","o","bonsai","tulip",NA,NA,NA,12,NA,NA,NA,NA,NA,0,"False","True",0.549562972213874,3,"unspecified"
3364,1233,"<h1>goose</h1><br><br><br> Please press space as soon as you recall the target.",32,24,1,"CuePresentation",TRUE,"True",2,"","","True","27_8_2023_13_39_55","1q549h1ymr6ts9q","html-keyboard-response",521,976722,"0.0-521.0","duck","goose","duck",NA,NA,NA,2,NA,NA,NA,NA,NA,1,"True","True",0.626741263447438,4,"Correct"
3366,1155.20000001788,"<h1>nose</h1><br><br><br> Please press space as soon as you recall the target.",32,24,2,"CuePresentation",TRUE,"True",2,"","","True","27_8_2023_13_39_55","1q549h1ymr6ts9q","html-keyboard-response",525,980463,"0.0-525.0","mouth","nose","mouth",NA,NA,NA,14,NA,NA,NA,NA,NA,1,"False","True",0.661824468395778,4,"Correct"
3368,4051.40000000596,"<h1>moth</h1><br><br><br> Please press space as soon as you recall the target.",32,24,3,"CuePresentation",FALSE,"True",2,"","","True","27_8_2023_13_39_55","1q549h1ymr6ts9q","html-keyboard-response",529,987276,"0.0-529.0","o","moth","fungus",NA,NA,NA,9,NA,NA,NA,NA,NA,0,"True","True",0.421186232744235,3,"unspecified"
3370,3181.80000001192,"<h1>juice</h1><br><br><br> Please press space as soon as you recall the target.",32,24,4,"CuePresentation",TRUE,"True",2,"","","True","27_8_2023_13_39_55","1q549h1ymr6ts9q","html-keyboard-response",533,992622,"0.0-533.0","soda","juice","soda",NA,NA,NA,18,NA,NA,NA,NA,NA,1,"False","True",0.636879768274072,4,"Correct"
3372,4341.69999998808,"<h1>blower</h1><br><br><br> Please press space as soon as you recall the target.",32,24,5,"CuePresentation",FALSE,"True",2,"","","True","27_8_2023_13_39_55","1q549h1ymr6ts9q","html-keyboard-response",537,999934,"0.0-537.0","o","blower","faucet",NA,NA,NA,23,NA,NA,NA,NA,NA,0,"False","True",0.127666791564387,1,"unspecified"
3374,8139.69999998808,"<h1>leash</h1><br><br><br> Please press space as soon as you recall the target.",32,24,6,"CuePresentation",FALSE,"True",2,"","","True","27_8_2023_13_39_55","1q549h1ymr6ts9q","html-keyboard-response",541,1010421,"0.0-541.0","o","leash","drink",NA,NA,NA,4,NA,NA,NA,NA,NA,0,"True","True",0.108463556475143,1,"unspecified"
3376,1643.29999998212,"<h1>muffin</h1><br><br><br> Please press space as soon as you recall the target.",32,24,7,"CuePresentation",TRUE,"True",2,"","","True","27_8_2023_13_39_55","1q549h1ymr6ts9q","html-keyboard-response",545,1014357,"0.0-545.0","crumb","muffin","crumb",NA,NA,NA,5,NA,NA,NA,NA,NA,1,"True","True",0.999999975253751,5,"Correct"
3378,5309.59999999404,"<h1>daisy</h1><br><br><br> Please press space as soon as you recall the target.",32,24,8,"CuePresentation",FALSE,"True",2,"","","True","27_8_2023_13_39_55","1q549h1ymr6ts9q","html-keyboard-response",549,1022593,"0.0-549.0","o","daisy","riser",NA,NA,NA,7,NA,NA,NA,NA,NA,0,"True","True",0.210706341768224,2,"unspecified"
3380,3540.79999998212,"<h1>binder</h1><br><br><br> Please press space as soon as you recall the target.",32,24,9,"CuePresentation",FALSE,"True",2,"","","True","27_8_2023_13_39_55","1q549h1ymr6ts9q","html-keyboard-response",553,1028773,"0.0-553.0","o","binder","weed",NA,NA,NA,19,NA,NA,NA,NA,NA,0,"False","True",0.193818930259629,1,"unspecified"
3382,1698.80000001192,"<h1>leech</h1><br><br><br> Please press space as soon as you recall the target.",32,24,10,"CuePresentation",TRUE,"True",2,"","","True","27_8_2023_13_39_55","1q549h1ymr6ts9q","html-keyboard-response",557,1033093,"0.0-557.0","worm","leech","worm",NA,NA,NA,17,NA,NA,NA,NA,NA,1,"False","True",0.809647988325674,5,"Correct"
3522,3987.79999998212,"<h1>clove</h1><br><br><br> Please press space as soon as you recall the target.",32,26,1,"CuePresentation",FALSE,"True",3,"","","True","27_8_2023_13_39_55","1q549h1ymr6ts9q","html-keyboard-response",857,1578157,"0.0-857.0","o","clove","chili",NA,NA,NA,16,NA,NA,NA,NA,NA,0,"False","True",0.713132070649667,4,"unspecified"
3524,4239.09999999404,"<h1>wrist</h1><br><br><br> Please press space as soon as you recall the target.",32,26,2,"CuePresentation",FALSE,"True",3,"","","True","27_8_2023_13_39_55","1q549h1ymr6ts9q","html-keyboard-response",861,1584645,"0.0-861.0","mouth","wrist","knee",NA,NA,NA,21,NA,NA,NA,NA,NA,0,"False","True",0.669356171840164,4,"Intrusion"
3526,3271.5,"<h1>earwig</h1><br><br><br> Please press space as soon as you recall the target.",32,26,3,"CuePresentation",FALSE,"True",3,"","","True","27_8_2023_13_39_55","1q549h1ymr6ts9q","html-keyboard-response",865,1590847,"0.0-865.0","o","earwig","walnut",NA,NA,NA,2,NA,NA,NA,NA,NA,0,"True","True",0.242173377562161,2,"unspecified"
3528,1343.90000000596,"<h1>coffee</h1><br><br><br> Please press space as soon as you recall the target.",32,26,4,"CuePresentation",TRUE,"True",3,"","","True","27_8_2023_13_39_55","1q549h1ymr6ts9q","html-keyboard-response",869,1594341,"0.0-869.0","teabag","coffee","teabag",NA,NA,NA,5,NA,NA,NA,NA,NA,1,"True","True",0.806588166583034,5,"Correct"
3530,1710,"<h1>closet</h1><br><br><br> Please press space as soon as you recall the target.",32,26,5,"CuePresentation",TRUE,"True",3,"","","True","27_8_2023_13_39_55","1q549h1ymr6ts9q","html-keyboard-response",873,1599554,"0.0-873.0","camper","closet","camper",NA,NA,NA,15,NA,NA,NA,NA,NA,1,"False","True",0.336314072358579,2,"Correct"
3532,1319,"<h1>makeup</h1><br><br><br> Please press space as soon as you recall the target.",32,26,6,"CuePresentation",TRUE,"True",3,"","","True","27_8_2023_13_39_55","1q549h1ymr6ts9q","html-keyboard-response",877,1603837,"0.0-877.0","paint","makeup","paint",NA,NA,NA,4,NA,NA,NA,NA,NA,1,"True","True",0.505935810169567,3,"Correct"
3534,2931.09999999404,"<h1>branch</h1><br><br><br> Please press space as soon as you recall the target.",32,26,7,"CuePresentation",FALSE,"True",3,"","","True","27_8_2023_13_39_55","1q549h1ymr6ts9q","html-keyboard-response",881,1609477,"0.0-881.0","o","branch","train",NA,NA,NA,12,NA,NA,NA,NA,NA,0,"False","True",0.401947106568526,3,"unspecified"
3536,1980.90000000596,"<h1>chips</h1><br><br><br> Please press space as soon as you recall the target.",32,26,8,"CuePresentation",TRUE,"True",3,"","","True","27_8_2023_13_39_55","1q549h1ymr6ts9q","html-keyboard-response",885,1613610,"0.0-885.0","potato","chips","potato",NA,NA,NA,7,NA,NA,NA,NA,NA,1,"True","True",0.603917424192587,4,"Correct"
3538,1275,"<h1>sheet</h1><br><br><br> Please press space as soon as you recall the target.",32,26,9,"CuePresentation",TRUE,"True",3,"","","True","27_8_2023_13_39_55","1q549h1ymr6ts9q","html-keyboard-response",889,1619160,"0.0-889.0","suit","sheet","suit",NA,NA,NA,9,NA,NA,NA,NA,NA,1,"True","True",0.153411380957624,1,"Correct"
3540,4410.19999998808,"<h1>melon</h1><br><br><br> Please press space as soon as you recall the target.",32,26,10,"CuePresentation",FALSE,"True",3,"","","True","27_8_2023_13_39_55","1q549h1ymr6ts9q","html-keyboard-response",893,1626232,"0.0-893.0","o","melon","radish",NA,NA,NA,19,NA,NA,NA,NA,NA,0,"False","True",0.568227410855373,3,"unspecified"
3614,1698,"<h1>panda</h1><br><br><br> Please press space as soon as you recall the target.",32,4,1,"CuePresentation",TRUE,"True",4,"","","True","27_8_2023_13_39_55","1q549h1ymr6ts9q","html-keyboard-response",1017,1829241,"0.0-1017.0","tiger","panda","tiger",NA,NA,NA,3,NA,NA,NA,NA,NA,1,"False","True",1.0000000621733,5,"Correct"
3616,9737.59999999404,"<h1>kiwi</h1><br><br><br> Please press space as soon as you recall the target.",32,4,2,"CuePresentation",FALSE,"True",4,"","","True","27_8_2023_13_39_55","1q549h1ymr6ts9q","html-keyboard-response",1021,1841745,"0.0-1021.0","o","kiwi","apple",NA,NA,NA,4,NA,NA,NA,NA,NA,0,"True","True",0.630507650883796,4,"unspecified"
3618,1837.5,"<h1>cocoon</h1><br><br><br> Please press space as soon as you recall the target.",32,4,3,"CuePresentation",FALSE,"True",4,"","","True","27_8_2023_13_39_55","1q549h1ymr6ts9q","html-keyboard-response",1025,1845801,"0.0-1025.0","o","cocoon","yogurt",NA,NA,NA,1,NA,NA,NA,NA,NA,0,"False","True",0.135617011678999,1,"unspecified"
3620,4909.90000000596,"<h1>crayon</h1><br><br><br> Please press space as soon as you recall the target.",32,4,4,"CuePresentation",FALSE,"True",4,"","","True","27_8_2023_13_39_55","1q549h1ymr6ts9q","html-keyboard-response",1029,1853160,"0.0-1029.0","o","crayon","poppy",NA,NA,NA,2,NA,NA,NA,NA,NA,0,"True","True",0.237959707772953,2,"unspecified"
3719,1742.90000000014,"<h1>visor</h1><br><br><br> Please press space as soon as you recall the target.",32,12,1,"CuePresentation",TRUE,"True",1,"","","True","12_8_2023_9_45_3","1u1x4rm6fx3toou","html-keyboard-response",185,362037,"0.0-185.0","helmet","visor","helmet",NA,NA,NA,1,NA,NA,NA,NA,NA,1,"False","True",1.0000000639651,5,"Correct"
3721,4659.09999999986,"<h1>drink</h1><br><br><br> Please press space as soon as you recall the target.",32,12,2,"CuePresentation",TRUE,"True",1,"","","True","12_8_2023_9_45_3","1u1x4rm6fx3toou","html-keyboard-response",189,370464,"0.0-189.0","leash","drink","leash",NA,NA,NA,2,NA,NA,NA,NA,NA,1,"True","True",0.108463556475143,1,"Correct"
3723,2085.5,"<h1>crane</h1><br><br><br> Please press space as soon as you recall the target.",32,12,3,"CuePresentation",TRUE,"True",1,"","","True","12_8_2023_9_45_3","1u1x4rm6fx3toou","html-keyboard-response",193,377930,"0.0-193.0","barrel","crane","barrel",NA,NA,NA,11,NA,NA,NA,NA,NA,1,"False","True",0.375189052412563,2,"Correct"
3725,1101.5,"<h1>panda</h1><br><br><br> Please press space as soon as you recall the target.",32,12,4,"CuePresentation",TRUE,"True",1,"","","True","12_8_2023_9_45_3","1u1x4rm6fx3toou","html-keyboard-response",197,382674,"0.0-197.0","tiger","panda","tiger",NA,NA,NA,3,NA,NA,NA,NA,NA,1,"False","True",1.0000000621733,5,"Correct"
3727,1572.39999999991,"<h1>wolf</h1><br><br><br> Please press space as soon as you recall the target.",32,12,5,"CuePresentation",TRUE,"True",1,"","","True","12_8_2023_9_45_3","1u1x4rm6fx3toou","html-keyboard-response",201,387740,"0.0-201.0","bowtie","wolf","bowtie",NA,NA,NA,4,NA,NA,NA,NA,NA,1,"True","True",0.208376515332164,2,"Correct"
3729,3614.19999999995,"<h1>floss</h1><br><br><br> Please press space as soon as you recall the target.",32,12,6,"CuePresentation",TRUE,"True",1,"","","True","12_8_2023_9_45_3","1u1x4rm6fx3toou","html-keyboard-response",205,395454,"0.0-205.0","powder","floss","powder",NA,NA,NA,9,NA,NA,NA,NA,NA,1,"True","True",0.48735431534364,3,"Correct"
3731,4848.30000000005,"<h1>parrot</h1><br><br><br> Please press space as soon as you recall the target.",32,12,7,"CuePresentation",TRUE,"True",1,"","","True","12_8_2023_9_45_3","1u1x4rm6fx3toou","html-keyboard-response",209,403986,"0.0-209.0","turtle","parrot","turtle",NA,NA,NA,7,NA,NA,NA,NA,NA,1,"True","True",0.65206421477411,4,"Correct"
3733,2516.90000000014,"<h1>drain</h1><br><br><br> Please press space as soon as you recall the target.",32,12,8,"CuePresentation",TRUE,"True",1,"","","True","12_8_2023_9_45_3","1u1x4rm6fx3toou","html-keyboard-response",213,410097,"0.0-213.0","sink","drain","sink",NA,NA,NA,12,NA,NA,NA,NA,NA,1,"False","True",0.631240283731934,4,"Correct"
3735,2281.30000000005,"<h1>clove</h1><br><br><br> Please press space as soon as you recall the target.",32,12,9,"CuePresentation",TRUE,"True",1,"","","True","12_8_2023_9_45_3","1u1x4rm6fx3toou","html-keyboard-response",217,417514,"0.0-217.0","chili","clove","chili",NA,NA,NA,6,NA,NA,NA,NA,NA,1,"False","True",0.713132070649667,4,"Correct"
3737,1929,"<h1>gravy</h1><br><br><br> Please press space as soon as you recall the target.",32,12,10,"CuePresentation",TRUE,"True",1,"","","True","12_8_2023_9_45_3","1u1x4rm6fx3toou","html-keyboard-response",221,423577,"0.0-221.0","grits","gravy","grits",NA,NA,NA,5,NA,NA,NA,NA,NA,1,"True","True",0.999999922215502,5,"Correct"
3865,3567.39999999991,"<h1>coyote</h1><br><br><br> Please press space as soon as you recall the target.",32,22,1,"CuePresentation",TRUE,"True",2,"","","True","12_8_2023_9_45_3","1u1x4rm6fx3toou","html-keyboard-response",489,908802,"0.0-489.0","cobra","coyote","cobra",NA,NA,NA,21,NA,NA,NA,NA,NA,1,"False","True",0.579578025639824,3,"Correct"
3867,768.800000000047,"<h1>violin</h1><br><br><br> Please press space as soon as you recall the target.",32,22,2,"CuePresentation",TRUE,"True",2,"","","True","12_8_2023_9_45_3","1u1x4rm6fx3toou","html-keyboard-response",493,913467,"0.0-493.0","cello","violin","cello",NA,NA,NA,5,NA,NA,NA,NA,NA,1,"True","True",0.808485246694099,5,"Correct"
3869,6823,"<h1>sand</h1><br><br><br> Please press space as soon as you recall the target.",32,22,3,"CuePresentation",TRUE,"True",2,"","","True","12_8_2023_9_45_3","1u1x4rm6fx3toou","html-keyboard-response",497,923851,"0.0-497.0","puddle","sand","puddle",NA,NA,NA,4,NA,NA,NA,NA,NA,1,"True","True",0.676405431577326,4,"Correct"
3871,1725.79999999981,"<h1>chisel</h1><br><br><br> Please press space as soon as you recall the target.",32,22,4,"CuePresentation",TRUE,"True",2,"","","True","12_8_2023_9_45_3","1u1x4rm6fx3toou","html-keyboard-response",501,929439,"0.0-501.0","spool","chisel","spool",NA,NA,NA,9,NA,NA,NA,NA,NA,1,"True","True",0.561989970663317,3,"Correct"
3873,3509.19999999995,"<h1>alpaca</h1><br><br><br> Please press space as soon as you recall the target.",32,22,5,"CuePresentation",TRUE,"True",2,"","","True","12_8_2023_9_45_3","1u1x4rm6fx3toou","html-keyboard-response",505,936683,"0.0-505.0","yarn","alpaca","yarn",NA,NA,NA,3,NA,NA,NA,NA,NA,1,"False","True",0.730008656413105,4,"Correct"
3875,13237.2,"<h1>wire</h1><br><br><br> Please press space as soon as you recall the target.",32,22,6,"CuePresentation",TRUE,"True",2,"","","True","12_8_2023_9_45_3","1u1x4rm6fx3toou","html-keyboard-response",509,953760,"0.0-509.0","tape","wire","tape",NA,NA,NA,15,NA,NA,NA,NA,NA,1,"False","True",0.501096990479819,3,"Correct"
3877,7501.90000000014,"<h1>desk</h1><br><br><br> Please press space as soon as you recall the target.",32,22,7,"CuePresentation",TRUE,"True",2,"","","True","12_8_2023_9_45_3","1u1x4rm6fx3toou","html-keyboard-response",513,964718,"0.0-513.0","toilet","desk","toilet",NA,NA,NA,13,NA,NA,NA,NA,NA,1,"False","True",0.427165723387472,3,"Correct"
3879,7557.69999999995,"<h1>watch</h1><br><br><br> Please press space as soon as you recall the target.",32,22,8,"CuePresentation",TRUE,"True",2,"","","True","12_8_2023_9_45_3","1u1x4rm6fx3toou","html-keyboard-response",517,977782,"0.0-517.0","sponge","watch","sponge",NA,NA,NA,10,NA,NA,NA,NA,NA,1,"False","True",0.17659200800734,1,"Correct"
3881,13369.2,"<h1>domino</h1><br><br><br> Please press space as soon as you recall the target.",32,22,9,"CuePresentation",FALSE,"True",2,"","","True","12_8_2023_9_45_3","1u1x4rm6fx3toou","html-keyboard-response",521,994467,"0.0-521.0","0","domino","statue",NA,NA,NA,2,NA,NA,NA,NA,NA,0,"True","True",0.110843714578772,1,"Omission"
3883,1949.80000000005,"<h1>roll</h1><br><br><br> Please press space as soon as you recall the target.",32,22,10,"CuePresentation",TRUE,"True",2,"","","True","12_8_2023_9_45_3","1u1x4rm6fx3toou","html-keyboard-response",525,999555,"0.0-525.0","leek","roll","leek",NA,NA,NA,7,NA,NA,NA,NA,NA,1,"True","True",0.228290377679196,2,"Correct"
4041,8057.20000000019,"<h1>frame</h1><br><br><br> Please press space as soon as you recall the target.",32,32,1,"CuePresentation",TRUE,"True",3,"","","True","12_8_2023_9_45_3","1u1x4rm6fx3toou","html-keyboard-response",873,1661488,"0.0-873.0","mast","frame","mast",NA,NA,NA,21,NA,NA,NA,NA,NA,1,"False","True",0.455237418240569,3,"Correct"
4043,1773.30000000028,"<h1>fondue</h1><br><br><br> Please press space as soon as you recall the target.",32,32,2,"CuePresentation",TRUE,"True",3,"","","True","12_8_2023_9_45_3","1u1x4rm6fx3toou","html-keyboard-response",877,1666993,"0.0-877.0","sauce","fondue","sauce",NA,NA,NA,9,NA,NA,NA,NA,NA,1,"True","True",0.600478527185145,4,"Correct"
4045,12018.7999999998,"<h1>sheet</h1><br><br><br> Please press space as soon as you recall the target.",32,32,3,"CuePresentation",TRUE,"True",3,"","","True","12_8_2023_9_45_3","1u1x4rm6fx3toou","html-keyboard-response",881,1682732,"0.0-881.0","suit","sheet","suit",NA,NA,NA,29,NA,NA,NA,NA,NA,1,"False","True",0.153411380957624,1,"Correct"
4047,4827,"<h1>bird</h1><br><br><br> Please press space as soon as you recall the target.",32,32,4,"CuePresentation",TRUE,"True",3,"","","True","12_8_2023_9_45_3","1u1x4rm6fx3toou","html-keyboard-response",885,1691305,"0.0-885.0","crow","bird","crow",NA,NA,NA,12,NA,NA,NA,NA,NA,1,"False","True",0.999999881451747,5,"Correct"
4049,1594.60000000009,"<h1>teabag</h1><br><br><br> Please press space as soon as you recall the target.",32,32,5,"CuePresentation",TRUE,"True",3,"","","True","12_8_2023_9_45_3","1u1x4rm6fx3toou","html-keyboard-response",889,1696400,"0.0-889.0","coffee","teabag","coffee",NA,NA,NA,4,NA,NA,NA,NA,NA,1,"True","True",0.806588166583034,5,"Correct"
4051,22130.1000000001,"<h1>melon</h1><br><br><br> Please press space as soon as you recall the target.",32,32,6,"CuePresentation",TRUE,"True",3,"","","True","12_8_2023_9_45_3","1u1x4rm6fx3toou","html-keyboard-response",893,1721886,"0.0-893.0","radish","melon","radish",NA,NA,NA,5,NA,NA,NA,NA,NA,1,"True","True",0.568227410855373,3,"Correct"
4053,21778,"<h1>lime</h1><br><br><br> Please press space as soon as you recall the target.",32,32,7,"CuePresentation",FALSE,"True",3,"","","True","12_8_2023_9_45_3","1u1x4rm6fx3toou","html-keyboard-response",897,1749424,"0.0-897.0","0","lime","hanger",NA,NA,NA,7,NA,NA,NA,NA,NA,0,"True","True",0.177170693013488,1,"Omission"
4055,5194.80000000028,"<h1>prism</h1><br><br><br> Please press space as soon as you recall the target.",32,32,8,"CuePresentation",TRUE,"True",3,"","","True","12_8_2023_9_45_3","1u1x4rm6fx3toou","html-keyboard-response",901,1757577,"0.0-901.0","ring","prism","ring",NA,NA,NA,2,NA,NA,NA,NA,NA,1,"True","True",0.359066430514316,2,"Correct"
4057,15678.6000000001,"<h1>lamp</h1><br><br><br> Please press space as soon as you recall the target.",32,32,9,"CuePresentation",TRUE,"True",3,"","","True","12_8_2023_9_45_3","1u1x4rm6fx3toou","html-keyboard-response",905,1776953,"0.0-905.0","candle","lamp","candle",NA,NA,NA,8,NA,NA,NA,NA,NA,1,"False","True",0.698749663319853,4,"Correct"
4059,4170.10000000009,"<h1>pipe</h1><br><br><br> Please press space as soon as you recall the target.",32,32,10,"CuePresentation",TRUE,"True",3,"","","True","12_8_2023_9_45_3","1u1x4rm6fx3toou","html-keyboard-response",909,1784871,"0.0-909.0","paper","pipe","paper",NA,NA,NA,20,NA,NA,NA,NA,NA,1,"False","True",0.258097566940599,2,"Correct"
4127,1007,"<h1>camel</h1><br><br><br> Please press space as soon as you recall the target.",32,2,1,"CuePresentation",TRUE,"True",4,"","","True","12_8_2023_9_45_3","1u1x4rm6fx3toou","html-keyboard-response",1017,1947749,"0.0-1017.0","crutch","camel","crutch",NA,NA,NA,2,NA,NA,NA,NA,NA,1,"True","True",0.366853562408624,2,"Correct"
4129,895.800000000279,"<h1>mouth</h1><br><br><br> Please press space as soon as you recall the target.",32,2,2,"CuePresentation",TRUE,"True",4,"","","True","12_8_2023_9_45_3","1u1x4rm6fx3toou","html-keyboard-response",1021,1952649,"0.0-1021.0","nose","mouth","nose",NA,NA,NA,1,NA,NA,NA,NA,NA,1,"False","True",0.661824468395778,4,"Correct"
4222,5484,"<h1>shirt</h1><br><br><br> Please press space as soon as you recall the target.",32,10,1,"CuePresentation",TRUE,"True",1,"","","True","11_8_2023_10_47_40","1w6aj55jwc871p3","html-keyboard-response",169,336982,"0.0-169.0","jersey","shirt","jersey",NA,NA,NA,10,NA,NA,NA,NA,NA,1,"False","False",0.649010826232407,4,"Correct"
4224,10953.9999999999,"<h1>quiche</h1><br><br><br> Please press space as soon as you recall the target.",32,10,2,"CuePresentation",TRUE,"True",1,"","","True","11_8_2023_10_47_40","1w6aj55jwc871p3","html-keyboard-response",173,353529,"0.0-173.0","pasta","quiche","pasta",NA,NA,NA,3,NA,NA,NA,NA,NA,1,"False","False",1.00000006075905,5,"Correct"
4226,3506.99999999994,"<h1>hummus</h1><br><br><br> Please press space as soon as you recall the target.",32,10,3,"CuePresentation",TRUE,"True",1,"","","True","11_8_2023_10_47_40","1w6aj55jwc871p3","html-keyboard-response",177,361558,"0.0-177.0","slicer","hummus","slicer",NA,NA,NA,1,NA,NA,NA,NA,NA,1,"False","False",0.500551068441678,3,"Correct"
4228,4570,"<h1>dress</h1><br><br><br> Please press space as soon as you recall the target.",32,10,4,"CuePresentation",TRUE,"True",1,"","","True","11_8_2023_10_47_40","1w6aj55jwc871p3","html-keyboard-response",181,370643,"0.0-181.0","radio","dress","radio",NA,NA,NA,5,NA,NA,NA,NA,NA,1,"True","False",0.003992160614718,1,"Correct"
4230,3258,"<h1>otter</h1><br><br><br> Please press space as soon as you recall the target.",32,10,5,"CuePresentation",FALSE,"True",1,"","","True","11_8_2023_10_47_40","1w6aj55jwc871p3","html-keyboard-response",185,378606,"0.0-185.0","iquana","otter","iguana",NA,NA,NA,2,NA,NA,NA,NA,NA,0,"True","False",0.866536373711664,5,"Misspelled Intrusion"
4232,4846,"<h1>possum</h1><br><br><br> Please press space as soon as you recall the target.",32,10,6,"CuePresentation",TRUE,"True",1,"","","True","11_8_2023_10_47_40","1w6aj55jwc871p3","html-keyboard-response",189,388808,"0.0-189.0","slime","possum","slime",NA,NA,NA,8,NA,NA,NA,NA,NA,1,"False","False",0.299240600347622,2,"Correct"
4234,5746,"<h1>leek</h1><br><br><br> Please press space as soon as you recall the target.",32,10,7,"CuePresentation",TRUE,"True",1,"","","True","11_8_2023_10_47_40","1w6aj55jwc871p3","html-keyboard-response",193,398831,"0.0-193.0","roll","leek","roll",NA,NA,NA,7,NA,NA,NA,NA,NA,1,"True","False",0.228290377679196,2,"Correct"
4236,3728.00000000006,"<h1>domino</h1><br><br><br> Please press space as soon as you recall the target.",32,10,8,"CuePresentation",TRUE,"True",1,"","","True","11_8_2023_10_47_40","1w6aj55jwc871p3","html-keyboard-response",197,406987,"0.0-197.0","statue","domino","statue",NA,NA,NA,6,NA,NA,NA,NA,NA,1,"False","False",0.110843714578772,1,"Correct"
