,X,rt,stimulus,key_press,ListLength,Trial_index,Phase,correct,ExperimentalPhase,Block,word1,word2,save,date,subject_id,trial_type,trial_index,time_elapsed,internal_node_id,response,cue,target,SequenceLength,sequence,letterSeen,queriedPosition,Stimulus_type,TrialType,timeMs,timeMin,score,correct_01,validTrials,validID,W2VWordPairsSim,SimBins,Error_type,W2VReponseCueSim,W2VReponseTargetSim
0,150,4226.39999985695,<h1>sheath</h1><br><br><br> Please press space as soon as you recall the target.,32,30,1,CuePresentation,False,True,1,,,True,29_8_2023_11_35_35,0assan0nym4bqrq,html-keyboard-response,329,643698,0.0-329.0,0,sheath,knife,,,,5,,,,,,0,True,False,0.735375776651981,4,Omission,999.0,999.0
1,152,10179.5999999046,<h1>earwig</h1><br><br><br> Please press space as soon as you recall the target.,32,30,2,CuePresentation,False,True,1,,,True,29_8_2023_11_35_35,0assan0nym4bqrq,html-keyboard-response,333,657779,0.0-333.0,0,earwig,walnut,,,,7,,,,,,0,True,False,0.242173377562161,2,Omission,999.0,999.0
2,154,12688.5999999046,<h1>lamp</h1><br><br><br> Please press space as soon as you recall the target.,32,30,3,CuePresentation,False,True,1,,,True,29_8_2023_11_35_35,0assan0nym4bqrq,html-keyboard-response,337,674193,0.0-337.0,head,lamp,candle,,,,22,,,,,,0,False,False,0.698749663319853,4,Intrusion,0.2202513467975047,0.15972137935822617
3,156,4736.5,<h1>sheet</h1><br><br><br> Please press space as soon as you recall the target.,32,30,4,CuePresentation,False,True,1,,,True,29_8_2023_11_35_35,0assan0nym4bqrq,html-keyboard-response,341,682545,0.0-341.0,0,sheet,suit,,,,4,,,,,,0,True,False,0.153411380957624,1,Omission,999.0,999.0
4,158,8928.70000004768,<h1>bumper</h1><br><br><br> Please press space as soon as you recall the target.,32,30,5,CuePresentation,False,True,1,,,True,29_8_2023_11_35_35,0assan0nym4bqrq,html-keyboard-response,345,695160,0.0-345.0,car,bumper,tank,,,,17,,,,,,0,False,False,0.337314081016891,2,Intrusion,0.5452532939087595,0.34006133072333394
5,160,11717.4000000954,<h1>moth</h1><br><br><br> Please press space as soon as you recall the target.,32,30,6,CuePresentation,False,True,1,,,True,29_8_2023_11_35_35,0assan0nym4bqrq,html-keyboard-response,349,710716,0.0-349.0,0,moth,fungus,,,,9,,,,,,0,True,False,0.421186232744235,3,Omission,999.0,999.0
6,162,10255.3000001907,<h1>girl</h1><br><br><br> Please press space as soon as you recall the target.,32,30,7,CuePresentation,False,True,1,,,True,29_8_2023_11_35_35,0assan0nym4bqrq,html-keyboard-response,353,723826,0.0-353.0,0,girl,chick,,,,18,,,,,,0,False,False,0.624724496623479,4,Omission,999.0,999.0
7,164,6208.89999985695,<h1>tape</h1><br><br><br> Please press space as soon as you recall the target.,32,30,8,CuePresentation,False,True,1,,,True,29_8_2023_11_35_35,0assan0nym4bqrq,html-keyboard-response,357,732984,0.0-357.0,earwig,tape,wire,,,,27,,,,,,0,False,False,0.501096990479819,3,Intrusion,0.056054631305640805,0.09515731687362965
8,166,8186.20000004768,<h1>teabag</h1><br><br><br> Please press space as soon as you recall the target.,32,30,9,CuePresentation,False,True,1,,,True,29_8_2023_11_35_35,0assan0nym4bqrq,html-keyboard-response,361,745676,0.0-361.0,0,teabag,coffee,,,,2,,,,,,0,True,False,0.806588166583034,5,Omission,999.0,999.0
9,168,2250.0,<h1>knee</h1><br><br><br> Please press space as soon as you recall the target.,32,30,10,CuePresentation,True,True,1,,,True,29_8_2023_11_35_35,0assan0nym4bqrq,html-keyboard-response,365,750911,0.0-365.0,wrist,knee,wrist,,,,6,,,,,,1,False,False,0.669356171840164,4,Correct,999.0,999.0
10,260,3266.29999995232,<h1>parrot</h1><br><br><br> Please press space as soon as you recall the target.,32,10,1,CuePresentation,True,True,2,,,True,29_8_2023_11_35_35,0assan0nym4bqrq,html-keyboard-response,537,1073987,0.0-537.0,turtle,parrot,turtle,,,,8,,,,,,1,False,False,0.65206421477411,4,Correct,999.0,999.0
11,262,2069.79999995232,<h1>thumb</h1><br><br><br> Please press space as soon as you recall the target.,32,10,2,CuePresentation,True,True,2,,,True,29_8_2023_11_35_35,0assan0nym4bqrq,html-keyboard-response,541,1082692,0.0-541.0,anklet,thumb,anklet,,,,6,,,,,,1,False,False,0.47748479244258,3,Correct,999.0,999.0
12,264,2798.79999995232,<h1>prune</h1><br><br><br> Please press space as soon as you recall the target.,32,10,3,CuePresentation,True,True,2,,,True,29_8_2023_11_35_35,0assan0nym4bqrq,html-keyboard-response,545,1088947,0.0-545.0,thorn,prune,thorn,,,,3,,,,,,1,False,False,0.999999978936332,5,Correct,999.0,999.0
13,266,2188.09999990463,<h1>eraser</h1><br><br><br> Please press space as soon as you recall the target.,32,10,4,CuePresentation,True,True,2,,,True,29_8_2023_11_35_35,0assan0nym4bqrq,html-keyboard-response,549,1094741,0.0-549.0,mirror,eraser,mirror,,,,4,,,,,,1,True,False,0.240063744300811,2,Correct,999.0,999.0
14,268,2054.70000004768,<h1>dough</h1><br><br><br> Please press space as soon as you recall the target.,32,10,5,CuePresentation,True,True,2,,,True,29_8_2023_11_35_35,0assan0nym4bqrq,html-keyboard-response,553,1102076,0.0-553.0,tomato,dough,tomato,,,,7,,,,,,1,True,False,0.445283558369461,3,Correct,999.0,999.0
15,270,8041.0,<h1>binder</h1><br><br><br> Please press space as soon as you recall the target.,32,10,6,CuePresentation,False,True,2,,,True,29_8_2023_11_35_35,0assan0nym4bqrq,html-keyboard-response,557,1114846,0.0-557.0,0,binder,weed,,,,1,,,,,,0,False,False,0.193818930259629,1,Omission,999.0,999.0
16,272,7525.19999980927,<h1>puddle</h1><br><br><br> Please press space as soon as you recall the target.,32,10,7,CuePresentation,True,True,2,,,True,29_8_2023_11_35_35,0assan0nym4bqrq,html-keyboard-response,561,1125660,0.0-561.0,sand,puddle,sand,,,,5,,,,,,1,True,False,0.676405431577326,4,Correct,999.0,999.0
17,274,7420.20000004768,<h1>flower</h1><br><br><br> Please press space as soon as you recall the target.,32,10,8,CuePresentation,False,True,2,,,True,29_8_2023_11_35_35,0assan0nym4bqrq,html-keyboard-response,565,1136276,0.0-565.0,petal,flower,orchid,,,,9,,,,,,0,True,False,1.0000000758957,5,Intrusion,0.7235823324891205,0.7235823324891205
18,276,7162.89999985695,<h1>leash</h1><br><br><br> Please press space as soon as you recall the target.,32,10,9,CuePresentation,False,True,2,,,True,29_8_2023_11_35_35,0assan0nym4bqrq,html-keyboard-response,569,1146751,0.0-569.0,0,leash,drink,,,,2,,,,,,0,True,False,0.108463556475143,1,Omission,999.0,999.0
19,278,4475.29999995232,<h1>skunk</h1><br><br><br> Please press space as soon as you recall the target.,32,10,10,CuePresentation,False,True,2,,,True,29_8_2023_11_35_35,0assan0nym4bqrq,html-keyboard-response,573,1153982,0.0-573.0,0,skunk,rope,,,,10,,,,,,0,False,False,0.323396853922166,2,Omission,999.0,999.0
20,364,2185.20000004768,<h1>iguana</h1><br><br><br> Please press space as soon as you recall the target.,32,8,1,CuePresentation,True,True,3,,,True,29_8_2023_11_35_35,0assan0nym4bqrq,html-keyboard-response,729,1422574,0.0-729.0,otter,iguana,otter,,,,8,,,,,,1,False,False,0.866536373711664,5,Correct,999.0,999.0
21,366,1943.0,<h1>camper</h1><br><br><br> Please press space as soon as you recall the target.,32,8,2,CuePresentation,True,True,3,,,True,29_8_2023_11_35_35,0assan0nym4bqrq,html-keyboard-response,733,1427777,0.0-733.0,closet,camper,closet,,,,4,,,,,,1,True,False,0.336314072358579,2,Correct,999.0,999.0
22,368,1492.59999990463,<h1>fudge</h1><br><br><br> Please press space as soon as you recall the target.,32,8,3,CuePresentation,True,True,3,,,True,29_8_2023_11_35_35,0assan0nym4bqrq,html-keyboard-response,737,1433101,0.0-737.0,rifle,fudge,rifle,,,,7,,,,,,1,True,False,0.0253189744766434,1,Correct,999.0,999.0
23,370,3908.40000009537,<h1>boot</h1><br><br><br> Please press space as soon as you recall the target.,32,8,4,CuePresentation,True,True,3,,,True,29_8_2023_11_35_35,0assan0nym4bqrq,html-keyboard-response,741,1440404,0.0-741.0,moss,boot,moss,,,,1,,,,,,1,False,False,0.223088852677818,2,Correct,999.0,999.0
24,372,1814.40000009537,<h1>throne</h1><br><br><br> Please press space as soon as you recall the target.,32,8,5,CuePresentation,True,True,3,,,True,29_8_2023_11_35_35,0assan0nym4bqrq,html-keyboard-response,745,1445841,0.0-745.0,donket,throne,donkey,,,,6,,,,,,1,False,False,0.108564855475739,1,Correct,999.0,999.0
25,374,3346.5,<h1>kimono</h1><br><br><br> Please press space as soon as you recall the target.,32,8,6,CuePresentation,True,True,3,,,True,29_8_2023_11_35_35,0assan0nym4bqrq,html-keyboard-response,749,1452598,0.0-749.0,locket,kimono,locket,,,,5,,,,,,1,True,False,0.0103429243642662,1,Correct,999.0,999.0
26,376,1572.80000019073,<h1>drain</h1><br><br><br> Please press space as soon as you recall the target.,32,8,7,CuePresentation,True,True,3,,,True,29_8_2023_11_35_35,0assan0nym4bqrq,html-keyboard-response,753,1457542,0.0-753.0,sink,drain,sink,,,,3,,,,,,1,False,False,0.631240283731934,4,Correct,999.0,999.0
27,378,5564.79999995232,<h1>spool</h1><br><br><br> Please press space as soon as you recall the target.,32,8,8,CuePresentation,False,True,3,,,True,29_8_2023_11_35_35,0assan0nym4bqrq,html-keyboard-response,757,1466240,0.0-757.0,0,spool,chisel,,,,2,,,,,,0,True,False,0.561989970663317,3,Omission,999.0,999.0
28,500,10944.6999998093,<h1>raft</h1><br><br><br> Please press space as soon as you recall the target.,32,20,1,CuePresentation,False,True,4,,,True,29_8_2023_11_35_35,0assan0nym4bqrq,html-keyboard-response,1009,1933390,0.0-1009.0,spool,raft,shorts,,,,11,,,,,,0,False,False,0.213414433174442,2,Intrusion,0.354477196328855,0.23299614859420345
29,502,3061.79999995232,<h1>quiche</h1><br><br><br> Please press space as soon as you recall the target.,32,20,2,CuePresentation,True,True,4,,,True,29_8_2023_11_35_35,0assan0nym4bqrq,html-keyboard-response,1013,1940578,0.0-1013.0,pasta,quiche,pasta,,,,18,,,,,,1,False,False,1.00000006075905,5,Correct,999.0,999.0
30,504,15140.2999999523,<h1>slime</h1><br><br><br> Please press space as soon as you recall the target.,32,20,3,CuePresentation,False,True,4,,,True,29_8_2023_11_35_35,0assan0nym4bqrq,html-keyboard-response,1017,1959121,0.0-1017.0,0,slime,possum,,,,4,,,,,,0,True,False,0.299240600347622,2,Omission,999.0,999.0
31,506,1643.09999990463,<h1>flag</h1><br><br><br> Please press space as soon as you recall the target.,32,20,4,CuePresentation,True,True,4,,,True,29_8_2023_11_35_35,0assan0nym4bqrq,html-keyboard-response,1021,1964001,0.0-1021.0,banner,flag,banner,,,,3,,,,,,1,False,False,0.616673037290324,4,Correct,999.0,999.0
32,508,2286.70000004768,<h1>horse</h1><br><br><br> Please press space as soon as you recall the target.,32,20,5,CuePresentation,True,True,4,,,True,29_8_2023_11_35_35,0assan0nym4bqrq,html-keyboard-response,1025,1969363,0.0-1025.0,pony,horse,pony,,,,10,,,,,,1,False,False,0.653305820007919,4,Correct,999.0,999.0
33,510,4623.59999990463,<h1>bonsai</h1><br><br><br> Please press space as soon as you recall the target.,32,20,6,CuePresentation,False,True,4,,,True,29_8_2023_11_35_35,0assan0nym4bqrq,html-keyboard-response,1029,1977058,0.0-1029.0,petal,bonsai,tulip,,,,1,,,,,,0,False,False,0.549562972213874,3,Intrusion,0.4924970792063717,0.6693102017279225
34,512,5700.29999995232,<h1>floss</h1><br><br><br> Please press space as soon as you recall the target.,32,20,7,CuePresentation,False,True,4,,,True,29_8_2023_11_35_35,0assan0nym4bqrq,html-keyboard-response,1033,1985906,0.0-1033.0,0,floss,powder,,,,9,,,,,,0,True,False,0.48735431534364,3,Omission,999.0,999.0
35,514,5283.59999990463,<h1>koala</h1><br><br><br> Please press space as soon as you recall the target.,32,20,8,CuePresentation,True,True,4,,,True,29_8_2023_11_35_35,0assan0nym4bqrq,html-keyboard-response,1037,1994041,0.0-1037.0,snake,koala,snake,,,,2,,,,,,1,True,False,0.674045570966141,4,Correct,999.0,999.0
36,516,1717.5,<h1>visor</h1><br><br><br> Please press space as soon as you recall the target.,32,20,9,CuePresentation,True,True,4,,,True,29_8_2023_11_35_35,0assan0nym4bqrq,html-keyboard-response,1041,1999135,0.0-1041.0,helmet,visor,helmet,,,,7,,,,,,1,True,False,1.0000000639651,5,Correct,999.0,999.0
37,518,2085.70000004768,<h1>blower</h1><br><br><br> Please press space as soon as you recall the target.,32,20,10,CuePresentation,False,True,4,,,True,29_8_2023_11_35_35,0assan0nym4bqrq,html-keyboard-response,1045,2004407,0.0-1045.0,tor,blower,faucet,,,,5,,,,,,0,True,False,0.127666791564387,1,Intrusion,0.00021644351103304498,0.043832392806523235
38,629,5787.90000000596,<h1>sandal</h1><br><br><br> Please press space as soon as you recall the target.,32,16,1,CuePresentation,True,True,1,,,True,11_8_2023_23_32_43,0c8mkfytab041ba,html-keyboard-response,217,379868,0.0-217.0,insole,sandal,insole,,,,1,,,,,,1,False,True,0.854520532339466,5,Correct,999.0,999.0
39,631,1627.30000001192,<h1>eraser</h1><br><br><br> Please press space as soon as you recall the target.,32,16,2,CuePresentation,True,True,1,,,True,11_8_2023_23_32_43,0c8mkfytab041ba,html-keyboard-response,221,384787,0.0-221.0,mirror,eraser,mirror,,,,11,,,,,,1,False,True,0.240063744300811,2,Correct,999.0,999.0
40,633,1631.80000001192,<h1>button</h1><br><br><br> Please press space as soon as you recall the target.,32,16,3,CuePresentation,True,True,1,,,True,11_8_2023_23_32_43,0c8mkfytab041ba,html-keyboard-response,225,390023,0.0-225.0,knob,button,knob,,,,7,,,,,,1,True,True,0.874543616124306,5,Correct,999.0,999.0
41,635,8903.5,<h1>buggy</h1><br><br><br> Please press space as soon as you recall the target.,32,16,4,CuePresentation,False,True,1,,,True,11_8_2023_23_32_43,0c8mkfytab041ba,html-keyboard-response,229,401956,0.0-229.0,kart,buggy,cart,,,,9,,,,,,0,True,True,0.428620405334395,3,Intrusion,0.7996345790893593,0.4125274446699505
42,637,3171.60000002384,<h1>hanger</h1><br><br><br> Please press space as soon as you recall the target.,32,16,5,CuePresentation,True,True,1,,,True,11_8_2023_23_32_43,0c8mkfytab041ba,html-keyboard-response,233,408099,0.0-233.0,lime,hanger,lime,,,,16,,,,,,1,False,True,0.177170693013488,1,Correct,999.0,999.0
43,639,4020.40000000596,<h1>possum</h1><br><br><br> Please press space as soon as you recall the target.,32,16,6,CuePresentation,False,True,1,,,True,11_8_2023_23_32_43,0c8mkfytab041ba,html-keyboard-response,237,415139,0.0-237.0,fungus,possum,slime,,,,5,,,,,,0,True,True,0.299240600347622,2,Intrusion,0.39073356133768394,0.42952986627931994
44,641,991.800000011921,<h1>bacon</h1><br><br><br> Please press space as soon as you recall the target.,32,16,7,CuePresentation,True,True,1,,,True,11_8_2023_23_32_43,0c8mkfytab041ba,html-keyboard-response,241,419638,0.0-241.0,hotdog,bacon,hotdog,,,,4,,,,,,1,True,True,0.654814915149301,4,Correct,999.0,999.0
45,643,2404.10000002384,<h1>kite</h1><br><br><br> Please press space as soon as you recall the target.,32,16,8,CuePresentation,True,True,1,,,True,11_8_2023_23_32_43,0c8mkfytab041ba,html-keyboard-response,245,425222,0.0-245.0,record,kite,record,,,,2,,,,,,1,True,True,0.150266880798289,1,Correct,999.0,999.0
46,645,1860.89999997616,<h1>moth</h1><br><br><br> Please press space as soon as you recall the target.,32,16,9,CuePresentation,True,True,1,,,True,11_8_2023_23_32_43,0c8mkfytab041ba,html-keyboard-response,249,430141,0.0-249.0,fungus,moth,fungus,,,,3,,,,,,1,False,True,0.421186232744235,3,Correct,999.0,999.0
47,647,1300.80000001192,<h1>folder</h1><br><br><br> Please press space as soon as you recall the target.,32,16,10,CuePresentation,True,True,1,,,True,11_8_2023_23_32_43,0c8mkfytab041ba,html-keyboard-response,253,434564,0.0-253.0,file,folder,file,,,,15,,,,,,1,False,True,0.761074923120327,4,Correct,999.0,999.0
48,763,5079.5,<h1>thumb</h1><br><br><br> Please press space as soon as you recall the target.,32,18,1,CuePresentation,False,True,2,,,True,11_8_2023_23_32_43,0c8mkfytab041ba,html-keyboard-response,489,831421,0.0-489.0,0,thumb,anklet,,,,9,,,,,,0,True,True,0.47748479244258,3,Omission,999.0,999.0
49,765,2062.30000001192,<h1>jacket</h1><br><br><br> Please press space as soon as you recall the target.,32,18,2,CuePresentation,True,True,2,,,True,11_8_2023_23_32_43,0c8mkfytab041ba,html-keyboard-response,493,837238,0.0-493.0,blazer,jacket,blazer,,,,15,,,,,,1,False,True,1.00000002728999,5,Correct,999.0,999.0
50,767,4234.19999998808,<h1>tick</h1><br><br><br> Please press space as soon as you recall the target.,32,18,3,CuePresentation,True,True,2,,,True,11_8_2023_23_32_43,0c8mkfytab041ba,html-keyboard-response,497,845784,0.0-497.0,clay,tick,clay,,,,5,,,,,,1,True,True,0.0153055198591734,1,Correct,999.0,999.0
51,769,2051.80000001192,<h1>crow</h1><br><br><br> Please press space as soon as you recall the target.,32,18,4,CuePresentation,True,True,2,,,True,11_8_2023_23_32_43,0c8mkfytab041ba,html-keyboard-response,501,850892,0.0-501.0,bird,crow,bird,,,,1,,,,,,1,False,True,0.999999881451747,5,Correct,999.0,999.0
52,771,888.600000023842,<h1>chick</h1><br><br><br> Please press space as soon as you recall the target.,32,18,5,CuePresentation,True,True,2,,,True,11_8_2023_23_32_43,0c8mkfytab041ba,html-keyboard-response,505,854546,0.0-505.0,girl,chick,girl,,,,4,,,,,,1,True,True,0.624724496623479,4,Correct,999.0,999.0
53,773,1982.69999998808,<h1>kayak</h1><br><br><br> Please press space as soon as you recall the target.,32,18,6,CuePresentation,True,True,2,,,True,11_8_2023_23_32_43,0c8mkfytab041ba,html-keyboard-response,509,859575,0.0-509.0,block,kayak,block,,,,16,,,,,,1,False,True,0.234036216185256,2,Correct,999.0,999.0
54,775,1172.09999999404,<h1>amber</h1><br><br><br> Please press space as soon as you recall the target.,32,18,7,CuePresentation,True,True,2,,,True,11_8_2023_23_32_43,0c8mkfytab041ba,html-keyboard-response,513,863977,0.0-513.0,orange,amber,orange,,,,2,,,,,,1,True,True,0.999999963859867,5,Correct,999.0,999.0
55,777,1869.39999997616,<h1>wand</h1><br><br><br> Please press space as soon as you recall the target.,32,18,8,CuePresentation,True,True,2,,,True,11_8_2023_23_32_43,0c8mkfytab041ba,html-keyboard-response,517,868926,0.0-517.0,money,wand,money,,,,7,,,,,,1,True,True,0.215125963179727,2,Correct,999.0,999.0
56,779,1709.69999998808,<h1>lion</h1><br><br><br> Please press space as soon as you recall the target.,32,18,9,CuePresentation,True,True,2,,,True,11_8_2023_23_32_43,0c8mkfytab041ba,html-keyboard-response,521,873703,0.0-521.0,fossil,lion,fossil,,,,11,,,,,,1,False,True,0.196524623623291,1,Correct,999.0,999.0
57,781,9931.29999998212,<h1>blind</h1><br><br><br> Please press space as soon as you recall the target.,32,18,10,CuePresentation,False,True,2,,,True,11_8_2023_23_32_43,0c8mkfytab041ba,html-keyboard-response,525,886738,0.0-525.0,0,blind,switch,,,,17,,,,,,0,False,True,0.252173754849272,2,Omission,999.0,999.0
58,861,1677.70000001788,<h1>badger</h1><br><br><br> Please press space as soon as you recall the target.,32,6,1,CuePresentation,True,True,3,,,True,11_8_2023_23_32_43,0c8mkfytab041ba,html-keyboard-response,665,1099400,0.0-665.0,acorn,badger,acorn,,,,1,,,,,,1,False,True,0.168680108473489,1,Correct,999.0,999.0
59,863,1516.59999999404,<h1>pony</h1><br><br><br> Please press space as soon as you recall the target.,32,6,2,CuePresentation,True,True,3,,,True,11_8_2023_23_32_43,0c8mkfytab041ba,html-keyboard-response,669,1104299,0.0-669.0,horse,pony,horse,,,,4,,,,,,1,True,True,0.653305820007919,4,Correct,999.0,999.0
60,865,1394.80000001192,<h1>tomato</h1><br><br><br> Please press space as soon as you recall the target.,32,6,3,CuePresentation,True,True,3,,,True,11_8_2023_23_32_43,0c8mkfytab041ba,html-keyboard-response,673,1108792,0.0-673.0,dough,tomato,dough,,,,5,,,,,,1,True,True,0.445283558369461,3,Correct,999.0,999.0
61,867,1823.80000001192,<h1>pulley</h1><br><br><br> Please press space as soon as you recall the target.,32,6,4,CuePresentation,True,True,3,,,True,11_8_2023_23_32_43,0c8mkfytab041ba,html-keyboard-response,677,1113532,0.0-677.0,crank,pulley,crank,,,,3,,,,,,1,False,True,0.999999982961594,5,Correct,999.0,999.0
62,869,1013.89999997616,<h1>pipe</h1><br><br><br> Please press space as soon as you recall the target.,32,6,5,CuePresentation,True,True,3,,,True,11_8_2023_23_32_43,0c8mkfytab041ba,html-keyboard-response,681,1118166,0.0-681.0,paper,pipe,paper,,,,6,,,,,,1,False,True,0.258097566940599,2,Correct,999.0,999.0
63,871,2354.70000001788,<h1>beetle</h1><br><br><br> Please press space as soon as you recall the target.,32,6,6,CuePresentation,True,True,3,,,True,11_8_2023_23_32_43,0c8mkfytab041ba,html-keyboard-response,685,1123569,0.0-685.0,kitten,beetle,kitten,,,,2,,,,,,1,True,True,0.316639554830722,2,Correct,999.0,999.0
64,1017,2656.69999998808,<h1>banner</h1><br><br><br> Please press space as soon as you recall the target.,32,28,1,CuePresentation,True,True,4,,,True,11_8_2023_23_32_43,0c8mkfytab041ba,html-keyboard-response,1001,1656678,0.0-1001.0,flag,banner,flag,,,,7,,,,,,1,True,True,0.616673037290324,4,Correct,999.0,999.0
65,1019,3631.0,<h1>bonnet</h1><br><br><br> Please press space as soon as you recall the target.,32,28,2,CuePresentation,False,True,4,,,True,11_8_2023_23_32_43,0c8mkfytab041ba,html-keyboard-response,1005,1663050,0.0-1005.0,hat,bonnet,scoop,,,,13,,,,,,0,False,True,0.295501525339056,2,Intrusion,0.40031417405515124,0.24828037014616158
66,1021,2277.90000000596,<h1>makeup</h1><br><br><br> Please press space as soon as you recall the target.,32,28,3,CuePresentation,True,True,4,,,True,11_8_2023_23_32_43,0c8mkfytab041ba,html-keyboard-response,1009,1668018,0.0-1009.0,paint,makeup,paint,,,,3,,,,,,1,False,True,0.505935810169567,3,Correct,999.0,999.0
67,1023,1057.5,<h1>gravy</h1><br><br><br> Please press space as soon as you recall the target.,32,28,4,CuePresentation,True,True,4,,,True,11_8_2023_23_32_43,0c8mkfytab041ba,html-keyboard-response,1013,1672150,0.0-1013.0,grits,gravy,grits,,,,5,,,,,,1,True,True,0.999999922215502,5,Correct,999.0,999.0
68,1025,1382.29999998212,<h1>tripod</h1><br><br><br> Please press space as soon as you recall the target.,32,28,5,CuePresentation,True,True,4,,,True,11_8_2023_23_32_43,0c8mkfytab041ba,html-keyboard-response,1017,1676408,0.0-1017.0,heater,tripod,heater,,,,4,,,,,,1,True,True,0.426391146408292,3,Correct,999.0,999.0
69,1027,5883.19999998808,<h1>crutch</h1><br><br><br> Please press space as soon as you recall the target.,32,28,6,CuePresentation,False,True,4,,,True,11_8_2023_23_32_43,0c8mkfytab041ba,html-keyboard-response,1021,1685192,0.0-1021.0,clinch,crutch,camel,,,,2,,,,,,0,True,True,0.366853562408624,2,Intrusion,0.07283976390306734,0.15420791166431203
70,1029,3996.59999999404,<h1>watch</h1><br><br><br> Please press space as soon as you recall the target.,32,28,7,CuePresentation,True,True,4,,,True,11_8_2023_23_32_43,0c8mkfytab041ba,html-keyboard-response,1025,1692433,0.0-1025.0,sponge,watch,sponge,,,,9,,,,,,1,True,True,0.17659200800734,1,Correct,999.0,999.0
71,1031,903.90000000596,<h1>muffin</h1><br><br><br> Please press space as soon as you recall the target.,32,28,8,CuePresentation,True,True,4,,,True,11_8_2023_23_32_43,0c8mkfytab041ba,html-keyboard-response,1029,1696524,0.0-1029.0,crumb,muffin,crumb,,,,15,,,,,,1,False,True,0.999999975253751,5,Correct,999.0,999.0
72,1033,5156.59999999404,<h1>apple</h1><br><br><br> Please press space as soon as you recall the target.,32,28,9,CuePresentation,False,True,4,,,True,11_8_2023_23_32_43,0c8mkfytab041ba,html-keyboard-response,1033,1704929,0.0-1033.0,0,apple,kiwi,,,,19,,,,,,0,False,True,0.630507650883796,4,Omission,999.0,999.0
73,1035,1484.5,<h1>gauze</h1><br><br><br> Please press space as soon as you recall the target.,32,28,10,CuePresentation,True,True,4,,,True,11_8_2023_23_32_43,0c8mkfytab041ba,html-keyboard-response,1037,1709424,0.0-1037.0,shelf,gauze,shelf,,,,17,,,,,,1,False,True,0.379523785471593,2,Correct,999.0,999.0
74,1182,1826.0,<h1>amber</h1><br><br><br> Please press space as soon as you recall the target.,32,28,1,CuePresentation,True,True,1,,,True,8_8_2023_11_36_48,0f6nydv2yw72ruv,html-keyboard-response,313,691389,0.0-313.0,orange,amber,orange,,,,7,,,,,,1,True,True,0.999999963859867,5,Correct,999.0,999.0
75,1184,2507.0,<h1>cereal</h1><br><br><br> Please press space as soon as you recall the target.,32,28,2,CuePresentation,True,True,1,,,True,8_8_2023_11_36_48,0f6nydv2yw72ruv,html-keyboard-response,317,697957,0.0-317.0,cookie,cereal,cookie,,,,10,,,,,,1,False,True,0.432807624318706,3,Correct,999.0,999.0
76,1186,1442.0,<h1>altar</h1><br><br><br> Please press space as soon as you recall the target.,32,28,3,CuePresentation,True,True,1,,,True,8_8_2023_11_36_48,0f6nydv2yw72ruv,html-keyboard-response,321,703581,0.0-321.0,rosary,altar,rosary,,,,18,,,,,,1,False,True,0.461896339092241,3,Correct,999.0,999.0
77,1188,2273.0,<h1>binder</h1><br><br><br> Please press space as soon as you recall the target.,32,28,4,CuePresentation,True,True,1,,,True,8_8_2023_11_36_48,0f6nydv2yw72ruv,html-keyboard-response,325,710031,0.0-325.0,weed,binder,weed,,,,4,,,,,,1,True,True,0.193818930259629,1,Correct,999.0,999.0
78,1190,1076.0,<h1>sandal</h1><br><br><br> Please press space as soon as you recall the target.,32,28,5,CuePresentation,True,True,1,,,True,8_8_2023_11_36_48,0f6nydv2yw72ruv,html-keyboard-response,329,714652,0.0-329.0,insole,sandal,insole,,,,25,,,,,,1,False,True,0.854520532339466,5,Correct,999.0,999.0
79,1192,1507.0,<h1>blind</h1><br><br><br> Please press space as soon as you recall the target.,32,28,6,CuePresentation,True,True,1,,,True,8_8_2023_11_36_48,0f6nydv2yw72ruv,html-keyboard-response,333,719894,0.0-333.0,switch,blind,switch,,,,14,,,,,,1,False,True,0.252173754849272,2,Correct,999.0,999.0
80,1194,1071.0,<h1>nose</h1><br><br><br> Please press space as soon as you recall the target.,32,28,7,CuePresentation,True,True,1,,,True,8_8_2023_11_36_48,0f6nydv2yw72ruv,html-keyboard-response,337,726154,0.0-337.0,mouth,nose,mouth,,,,3,,,,,,1,False,True,0.661824468395778,4,Correct,999.0,999.0
81,1196,1482.0,<h1>ring</h1><br><br><br> Please press space as soon as you recall the target.,32,28,8,CuePresentation,True,True,1,,,True,8_8_2023_11_36_48,0f6nydv2yw72ruv,html-keyboard-response,341,730805,0.0-341.0,prism,ring,prism,,,,9,,,,,,1,True,True,0.359066430514316,2,Correct,999.0,999.0
82,1198,1071.0,<h1>jersey</h1><br><br><br> Please press space as soon as you recall the target.,32,28,9,CuePresentation,True,True,1,,,True,8_8_2023_11_36_48,0f6nydv2yw72ruv,html-keyboard-response,345,735077,0.0-345.0,shirt,jersey,shirt,,,,5,,,,,,1,True,True,0.649010826232407,4,Correct,999.0,999.0
83,1200,1249.0,<h1>paint</h1><br><br><br> Please press space as soon as you recall the target.,32,28,10,CuePresentation,True,True,1,,,True,8_8_2023_11_36_48,0f6nydv2yw72ruv,html-keyboard-response,349,739679,0.0-349.0,makeup,paint,makeup,,,,2,,,,,,1,True,True,0.505935810169567,3,Correct,999.0,999.0
84,1280,24910.0,<h1>chips</h1><br><br><br> Please press space as soon as you recall the target.,32,6,1,CuePresentation,False,True,2,,,True,8_8_2023_11_36_48,0f6nydv2yw72ruv,html-keyboard-response,489,1052043,0.0-489.0,0,chips,potato,,,,5,,,,,,0,True,True,0.603917424192587,4,Omission,999.0,999.0
85,1282,4544.0,<h1>money</h1><br><br><br> Please press space as soon as you recall the target.,32,6,2,CuePresentation,False,True,2,,,True,8_8_2023_11_36_48,0f6nydv2yw72ruv,html-keyboard-response,493,1059513,0.0-493.0,0,money,wand,,,,4,,,,,,0,True,True,0.215125963179727,2,Omission,999.0,999.0
86,1284,1039.0,<h1>eagle</h1><br><br><br> Please press space as soon as you recall the target.,32,6,3,CuePresentation,True,True,2,,,True,8_8_2023_11_36_48,0f6nydv2yw72ruv,html-keyboard-response,497,1064620,0.0-497.0,hawk,eagle,hawk,,,,1,,,,,,1,False,True,1.00000004736111,5,Correct,999.0,999.0
87,1286,11648.0,<h1>kimono</h1><br><br><br> Please press space as soon as you recall the target.,32,6,4,CuePresentation,False,True,2,,,True,8_8_2023_11_36_48,0f6nydv2yw72ruv,html-keyboard-response,501,1080054,0.0-501.0,dress,kimono,locket,,,,6,,,,,,0,False,True,0.0103429243642662,1,Intrusion,0.7605196792763247,0.20028171118688978
88,1288,1588.0,<h1>chest</h1><br><br><br> Please press space as soon as you recall the target.,32,6,5,CuePresentation,False,True,2,,,True,8_8_2023_11_36_48,0f6nydv2yw72ruv,html-keyboard-response,505,1084774,0.0-505.0,kimono,chest,dial,,,,2,,,,,,0,True,True,0.197907306417201,1,Intrusion,0.2453903787956677,0.08664429303955533
89,1290,971.0,<h1>buggy</h1><br><br><br> Please press space as soon as you recall the target.,32,6,6,CuePresentation,True,True,2,,,True,8_8_2023_11_36_48,0f6nydv2yw72ruv,html-keyboard-response,509,1089577,0.0-509.0,cart,buggy,cart,,,,3,,,,,,1,False,True,0.428620405334395,3,Correct,999.0,999.0
90,1400,11468.0,<h1>zipper</h1><br><br><br> Please press space as soon as you recall the target.,32,16,1,CuePresentation,True,True,3,,,True,8_8_2023_11_36_48,0f6nydv2yw72ruv,html-keyboard-response,729,1537234,0.0-729.0,buckle,zipper,buckle,,,,3,,,,,,1,False,True,0.948896955583809,5,Correct,999.0,999.0
91,1402,3883.0,<h1>blower</h1><br><br><br> Please press space as soon as you recall the target.,32,16,2,CuePresentation,True,True,3,,,True,8_8_2023_11_36_48,0f6nydv2yw72ruv,html-keyboard-response,733,1546149,0.0-733.0,faucet,blower,faucet,,,,1,,,,,,1,False,True,0.127666791564387,1,Correct,999.0,999.0
92,1404,1791.0,<h1>sushi</h1><br><br><br> Please press space as soon as you recall the target.,32,16,3,CuePresentation,True,True,3,,,True,8_8_2023_11_36_48,0f6nydv2yw72ruv,html-keyboard-response,737,1552074,0.0-737.0,sundae,sushi,sundae,,,,5,,,,,,1,True,True,0.610210725864509,4,Correct,999.0,999.0
93,1406,2537.0,<h1>roll</h1><br><br><br> Please press space as soon as you recall the target.,32,16,4,CuePresentation,True,True,3,,,True,8_8_2023_11_36_48,0f6nydv2yw72ruv,html-keyboard-response,741,1559041,0.0-741.0,leek,roll,leek,,,,2,,,,,,1,True,True,0.228290377679196,2,Correct,999.0,999.0
94,1408,2334.0,<h1>folder</h1><br><br><br> Please press space as soon as you recall the target.,32,16,5,CuePresentation,True,True,3,,,True,8_8_2023_11_36_48,0f6nydv2yw72ruv,html-keyboard-response,745,1565198,0.0-745.0,file,folder,file,,,,11,,,,,,1,False,True,0.761074923120327,4,Correct,999.0,999.0
95,1410,12264.0,<h1>wire</h1><br><br><br> Please press space as soon as you recall the target.,32,16,6,CuePresentation,True,True,3,,,True,8_8_2023_11_36_48,0f6nydv2yw72ruv,html-keyboard-response,749,1581645,0.0-749.0,tape,wire,tape,,,,10,,,,,,1,False,True,0.501096990479819,3,Correct,999.0,999.0
96,1412,12425.0,<h1>flask</h1><br><br><br> Please press space as soon as you recall the target.,32,16,7,CuePresentation,True,True,3,,,True,8_8_2023_11_36_48,0f6nydv2yw72ruv,html-keyboard-response,753,1598129,0.0-753.0,cigar,flask,cigar,,,,12,,,,,,1,False,True,0.485236393705821,3,Correct,999.0,999.0
97,1414,2121.0,<h1>train</h1><br><br><br> Please press space as soon as you recall the target.,32,16,8,CuePresentation,True,True,3,,,True,8_8_2023_11_36_48,0f6nydv2yw72ruv,html-keyboard-response,757,1604500,0.0-757.0,branch,train,branch,,,,7,,,,,,1,True,True,0.401947106568526,3,Correct,999.0,999.0
98,1416,1252.0,<h1>otter</h1><br><br><br> Please press space as soon as you recall the target.,32,16,9,CuePresentation,True,True,3,,,True,8_8_2023_11_36_48,0f6nydv2yw72ruv,html-keyboard-response,761,1609651,0.0-761.0,iguana,otter,iguana,,,,9,,,,,,1,True,True,0.866536373711664,5,Correct,999.0,999.0
99,1418,2434.0,<h1>bison</h1><br><br><br> Please press space as soon as you recall the target.,32,16,10,CuePresentation,True,True,3,,,True,8_8_2023_11_36_48,0f6nydv2yw72ruv,html-keyboard-response,765,1617184,0.0-765.0,bikini,bison,bikini,,,,4,,,,,,1,True,True,0.0439818995812783,1,Correct,999.0,999.0
100,1534,1532.0,<h1>gauze</h1><br><br><br> Please press space as soon as you recall the target.,32,18,1,CuePresentation,True,True,4,,,True,8_8_2023_11_36_48,0f6nydv2yw72ruv,html-keyboard-response,1001,2092266,0.0-1001.0,shelf,gauze,shelf,,,,7,,,,,,1,True,True,0.379523785471593,2,Correct,999.0,999.0
101,1536,8456.0,<h1>boar</h1><br><br><br> Please press space as soon as you recall the target.,32,18,2,CuePresentation,True,True,4,,,True,8_8_2023_11_36_48,0f6nydv2yw72ruv,html-keyboard-response,1005,2103784,0.0-1005.0,coat,boar,coat,,,,13,,,,,,1,False,True,0.281532111177466,2,Correct,999.0,999.0
102,1538,18989.0,<h1>kilt</h1><br><br><br> Please press space as soon as you recall the target.,32,18,3,CuePresentation,True,True,4,,,True,8_8_2023_11_36_48,0f6nydv2yw72ruv,html-keyboard-response,1009,2126512,0.0-1009.0,tiara,kilt,tiara,,,,5,,,,,,1,True,True,0.750416700964624,4,Correct,999.0,999.0
103,1540,3433.0,<h1>badger</h1><br><br><br> Please press space as soon as you recall the target.,32,18,4,CuePresentation,True,True,4,,,True,8_8_2023_11_36_48,0f6nydv2yw72ruv,html-keyboard-response,1013,2133388,0.0-1013.0,acorn,badger,acorn,,,,9,,,,,,1,True,True,0.168680108473489,1,Correct,999.0,999.0
104,1542,14061.0,<h1>mast</h1><br><br><br> Please press space as soon as you recall the target.,32,18,5,CuePresentation,True,True,4,,,True,8_8_2023_11_36_48,0f6nydv2yw72ruv,html-keyboard-response,1017,2150785,0.0-1017.0,frame,mast,frame,,,,11,,,,,,1,False,True,0.455237418240569,3,Correct,999.0,999.0
105,1544,13739.0,<h1>tomato</h1><br><br><br> Please press space as soon as you recall the target.,32,18,6,CuePresentation,True,True,4,,,True,8_8_2023_11_36_48,0f6nydv2yw72ruv,html-keyboard-response,1021,2167774,0.0-1021.0,dough,tomato,dough,,,,2,,,,,,1,True,True,0.445283558369461,3,Correct,999.0,999.0
106,1546,7417.0,<h1>chalk</h1><br><br><br> Please press space as soon as you recall the target.,32,18,7,CuePresentation,True,True,4,,,True,8_8_2023_11_36_48,0f6nydv2yw72ruv,html-keyboard-response,1025,2178495,0.0-1025.0,cloak,chalk,cloak,,,,16,,,,,,1,False,True,0.143585884717132,1,Correct,999.0,999.0
107,1548,23047.0,<h1>blouse</h1><br><br><br> Please press space as soon as you recall the target.,32,18,8,CuePresentation,True,True,4,,,True,8_8_2023_11_36_48,0f6nydv2yw72ruv,html-keyboard-response,1029,2205896,0.0-1029.0,skirt,blouse,skirt,,,,4,,,,,,1,True,True,0.999999967678032,5,Correct,999.0,999.0
108,1550,6683.0,<h1>squid</h1><br><br><br> Please press space as soon as you recall the target.,32,18,9,CuePresentation,True,True,4,,,True,8_8_2023_11_36_48,0f6nydv2yw72ruv,html-keyboard-response,1033,2216076,0.0-1033.0,fish,squid,fish,,,,17,,,,,,1,False,True,0.752440606490791,4,Correct,999.0,999.0
109,1552,2933.0,<h1>kite</h1><br><br><br> Please press space as soon as you recall the target.,32,18,10,CuePresentation,True,True,4,,,True,8_8_2023_11_36_48,0f6nydv2yw72ruv,html-keyboard-response,1037,2221958,0.0-1037.0,record,kite,record,,,,18,,,,,,1,False,True,0.150266880798289,1,Correct,999.0,999.0
110,1705,2734.5,<h1>camel</h1><br><br><br> Please press space as soon as you recall the target.,32,30,1,CuePresentation,False,True,1,,,True,11_8_2023_10_9_34,0hfly3uzy7qnhxp,html-keyboard-response,329,627592,0.0-329.0,0,camel,crutch,,,,19,,,,,,0,False,True,0.366853562408624,2,Omission,999.0,999.0
111,1707,4219.0,<h1>barrel</h1><br><br><br> Please press space as soon as you recall the target.,32,30,2,CuePresentation,False,True,1,,,True,11_8_2023_10_9_34,0hfly3uzy7qnhxp,html-keyboard-response,333,634730,0.0-333.0,0,barrel,crane,,,,22,,,,,,0,False,True,0.375189052412563,2,Omission,999.0,999.0
112,1709,2957.10000000009,<h1>parrot</h1><br><br><br> Please press space as soon as you recall the target.,32,30,3,CuePresentation,False,True,1,,,True,11_8_2023_10_9_34,0hfly3uzy7qnhxp,html-keyboard-response,337,640519,0.0-337.0,0,parrot,turtle,,,,2,,,,,,0,True,True,0.65206421477411,4,Omission,999.0,999.0
113,1711,1107.60000000009,<h1>amber</h1><br><br><br> Please press space as soon as you recall the target.,32,30,4,CuePresentation,True,True,1,,,True,11_8_2023_10_9_34,0hfly3uzy7qnhxp,html-keyboard-response,341,644475,0.0-341.0,orange,amber,orange,,,,18,,,,,,1,False,True,0.999999963859867,5,Correct,999.0,999.0
114,1713,2135.40000000037,<h1>bird</h1><br><br><br> Please press space as soon as you recall the target.,32,30,5,CuePresentation,True,True,1,,,True,11_8_2023_10_9_34,0hfly3uzy7qnhxp,html-keyboard-response,345,650073,0.0-345.0,crow,bird,crow,,,,9,,,,,,1,True,True,0.999999881451747,5,Correct,999.0,999.0
115,1715,1333.20000000019,<h1>wolf</h1><br><br><br> Please press space as soon as you recall the target.,32,30,6,CuePresentation,True,True,1,,,True,11_8_2023_10_9_34,0hfly3uzy7qnhxp,html-keyboard-response,349,654763,0.0-349.0,bowite,wolf,bowtie,,,,5,,,,,,1,True,True,0.208376515332164,2,Correct,999.0,999.0
116,1717,3189.39999999991,<h1>leash</h1><br><br><br> Please press space as soon as you recall the target.,32,30,7,CuePresentation,False,True,1,,,True,11_8_2023_10_9_34,0hfly3uzy7qnhxp,html-keyboard-response,353,661456,0.0-353.0,possum,leash,drink,,,,15,,,,,,0,False,True,0.108463556475143,1,Intrusion,0.259105822906304,0.1837626581529402
117,1719,6890.59999999963,<h1>coyote</h1><br><br><br> Please press space as soon as you recall the target.,32,30,8,CuePresentation,True,True,1,,,True,11_8_2023_10_9_34,0hfly3uzy7qnhxp,html-keyboard-response,357,672201,0.0-357.0,cobra,coyote,cobra,,,,24,,,,,,1,False,True,0.579578025639824,3,Correct,999.0,999.0
118,1721,1896.79999999981,<h1>slicer</h1><br><br><br> Please press space as soon as you recall the target.,32,30,9,CuePresentation,False,True,1,,,True,11_8_2023_10_9_34,0hfly3uzy7qnhxp,html-keyboard-response,361,677494,0.0-361.0,pupil,slicer,hummus,,,,7,,,,,,0,True,True,0.500551068441678,3,Intrusion,0.02915571203495882,-0.08442422651932081
119,1723,3528.5,<h1>dress</h1><br><br><br> Please press space as soon as you recall the target.,32,30,10,CuePresentation,False,True,1,,,True,11_8_2023_10_9_34,0hfly3uzy7qnhxp,html-keyboard-response,365,684368,0.0-365.0,0,dress,radio,,,,4,,,,,,0,True,True,0.003992160614718,1,Omission,999.0,999.0
120,1809,2777.60000000009,<h1>kiwi</h1><br><br><br> Please press space as soon as you recall the target.,32,8,1,CuePresentation,True,True,2,,,True,11_8_2023_10_9_34,0hfly3uzy7qnhxp,html-keyboard-response,521,989477,0.0-521.0,apple,kiwi,apple,,,,2,,,,,,1,True,True,0.630507650883796,4,Correct,999.0,999.0
121,1811,2807.69999999972,<h1>kimono</h1><br><br><br> Please press space as soon as you recall the target.,32,8,2,CuePresentation,False,True,2,,,True,11_8_2023_10_9_34,0hfly3uzy7qnhxp,html-keyboard-response,525,996191,0.0-525.0,kilt,kimono,locket,,,,4,,,,,,0,True,True,0.0103429243642662,1,Intrusion,0.7504167009646243,0.096619961948252
122,1813,5300.0,<h1>quiche</h1><br><br><br> Please press space as soon as you recall the target.,32,8,3,CuePresentation,False,True,2,,,True,11_8_2023_10_9_34,0hfly3uzy7qnhxp,html-keyboard-response,529,1004368,0.0-529.0,0,quiche,pasta,,,,3,,,,,,0,False,True,1.00000006075905,5,Omission,999.0,999.0
123,1815,3770.09999999963,<h1>bolt</h1><br><br><br> Please press space as soon as you recall the target.,32,8,4,CuePresentation,False,True,2,,,True,11_8_2023_10_9_34,0hfly3uzy7qnhxp,html-keyboard-response,533,1010698,0.0-533.0,0,bolt,towel,,,,8,,,,,,0,False,True,0.275631401009094,2,Omission,999.0,999.0
124,1817,5463.79999999981,<h1>napkin</h1><br><br><br> Please press space as soon as you recall the target.,32,8,5,CuePresentation,False,True,2,,,True,11_8_2023_10_9_34,0hfly3uzy7qnhxp,html-keyboard-response,537,1018550,0.0-537.0,0,napkin,tinsel,,,,7,,,,,,0,True,True,0.433620537301468,3,Omission,999.0,999.0
125,1819,4031.0,<h1>cannon</h1><br><br><br> Please press space as soon as you recall the target.,32,8,6,CuePresentation,False,True,2,,,True,11_8_2023_10_9_34,0hfly3uzy7qnhxp,html-keyboard-response,541,1024951,0.0-541.0,0,cannon,garlic,,,,6,,,,,,0,False,True,0.114988934111725,1,Omission,999.0,999.0
126,1821,3350.0,<h1>donkey</h1><br><br><br> Please press space as soon as you recall the target.,32,8,7,CuePresentation,False,True,2,,,True,11_8_2023_10_9_34,0hfly3uzy7qnhxp,html-keyboard-response,545,1031215,0.0-545.0,0,donkey,throne,,,,1,,,,,,0,False,True,0.108564855475739,1,Omission,999.0,999.0
127,1823,3694.89999999991,<h1>walnut</h1><br><br><br> Please press space as soon as you recall the target.,32,8,8,CuePresentation,False,True,2,,,True,11_8_2023_10_9_34,0hfly3uzy7qnhxp,html-keyboard-response,549,1037412,0.0-549.0,0,walnut,earwig,,,,5,,,,,,0,True,True,0.242173377562161,2,Omission,999.0,999.0
128,1945,5248.89999999991,<h1>melon</h1><br><br><br> Please press space as soon as you recall the target.,32,20,1,CuePresentation,False,True,3,,,True,11_8_2023_10_9_34,0hfly3uzy7qnhxp,html-keyboard-response,801,1514958,0.0-801.0,kiwi,melon,radish,,,,12,,,,,,0,False,True,0.568227410855373,3,Intrusion,1.0000000213560836,0.5682274108553733
129,1947,1075.70000000019,<h1>stump</h1><br><br><br> Please press space as soon as you recall the target.,32,20,2,CuePresentation,True,True,3,,,True,11_8_2023_10_9_34,0hfly3uzy7qnhxp,html-keyboard-response,805,1519206,0.0-805.0,stem,stump,stem,,,,7,,,,,,1,True,True,0.402091789020628,3,Correct,999.0,999.0
130,1949,1463.70000000019,<h1>bumper</h1><br><br><br> Please press space as soon as you recall the target.,32,20,3,CuePresentation,True,True,3,,,True,11_8_2023_10_9_34,0hfly3uzy7qnhxp,html-keyboard-response,809,1523838,0.0-809.0,tank,bumper,tank,,,,15,,,,,,1,False,True,0.337314081016891,2,Correct,999.0,999.0
131,1951,2637.79999999981,<h1>bikini</h1><br><br><br> Please press space as soon as you recall the target.,32,20,4,CuePresentation,True,True,3,,,True,11_8_2023_10_9_34,0hfly3uzy7qnhxp,html-keyboard-response,813,1529932,0.0-813.0,bison,bikini,bison,,,,13,,,,,,1,False,True,0.0439818995812783,1,Correct,999.0,999.0
132,1953,1193.59999999963,<h1>banner</h1><br><br><br> Please press space as soon as you recall the target.,32,20,5,CuePresentation,True,True,3,,,True,11_8_2023_10_9_34,0hfly3uzy7qnhxp,html-keyboard-response,817,1534161,0.0-817.0,flag,banner,flag,,,,14,,,,,,1,False,True,0.616673037290324,4,Correct,999.0,999.0
133,1955,12850.1999999997,<h1>poppy</h1><br><br><br> Please press space as soon as you recall the target.,32,20,6,CuePresentation,False,True,3,,,True,11_8_2023_10_9_34,0hfly3uzy7qnhxp,html-keyboard-response,821,1550338,0.0-821.0,0,poppy,crayon,,,,18,,,,,,0,False,True,0.237959707772953,2,Omission,999.0,999.0
134,1957,3908.0,<h1>yogurt</h1><br><br><br> Please press space as soon as you recall the target.,32,20,7,CuePresentation,True,True,3,,,True,11_8_2023_10_9_34,0hfly3uzy7qnhxp,html-keyboard-response,825,1556843,0.0-825.0,cocoon,yogurt,cocoon,,,,2,,,,,,1,True,True,0.135617011678999,1,Correct,999.0,999.0
135,1959,12536.0,<h1>squash</h1><br><br><br> Please press space as soon as you recall the target.,32,20,8,CuePresentation,False,True,3,,,True,11_8_2023_10_9_34,0hfly3uzy7qnhxp,html-keyboard-response,829,1573372,0.0-829.0,stomp,squash,root,,,,4,,,,,,0,True,True,0.246029577781375,2,Intrusion,0.08143301086838287,-0.03346800114871515
136,1961,3763.5,<h1>orchid</h1><br><br><br> Please press space as soon as you recall the target.,32,20,9,CuePresentation,False,True,3,,,True,11_8_2023_10_9_34,0hfly3uzy7qnhxp,html-keyboard-response,833,1580851,0.0-833.0,melon,orchid,flower,,,,9,,,,,,0,True,True,1.0000000758957,5,Intrusion,0.44806479030865537,0.44806479030865537
137,1963,16558.3000000003,<h1>bacon</h1><br><br><br> Please press space as soon as you recall the target.,32,20,10,CuePresentation,False,True,3,,,True,11_8_2023_10_9_34,0hfly3uzy7qnhxp,html-keyboard-response,837,1600541,0.0-837.0,0,bacon,hotdog,,,,5,,,,,,0,True,True,0.654814915149301,4,Omission,999.0,999.0
138,2055,6103.5,<h1>teepee</h1><br><br><br> Please press space as soon as you recall the target.,32,10,1,CuePresentation,False,True,4,,,True,11_8_2023_10_9_34,0hfly3uzy7qnhxp,html-keyboard-response,1009,1888602,0.0-1009.0,0,teepee,stove,,,,9,,,,,,0,True,True,0.441684669598265,3,Omission,999.0,999.0
139,2057,7197.20000000019,<h1>weed</h1><br><br><br> Please press space as soon as you recall the target.,32,10,2,CuePresentation,False,True,4,,,True,11_8_2023_10_9_34,0hfly3uzy7qnhxp,html-keyboard-response,1013,1898385,0.0-1013.0,teepee,weed,binder,,,,7,,,,,,0,True,True,0.193818930259629,1,Intrusion,0.22200486297263572,0.3155469296245793
140,2059,5554.39999999991,<h1>bonnet</h1><br><br><br> Please press space as soon as you recall the target.,32,10,3,CuePresentation,False,True,4,,,True,11_8_2023_10_9_34,0hfly3uzy7qnhxp,html-keyboard-response,1017,1907377,0.0-1017.0,0,bonnet,scoop,,,,10,,,,,,0,False,True,0.295501525339056,2,Omission,999.0,999.0
141,2061,1275.39999999991,<h1>ship</h1><br><br><br> Please press space as soon as you recall the target.,32,10,4,CuePresentation,True,True,4,,,True,11_8_2023_10_9_34,0hfly3uzy7qnhxp,html-keyboard-response,1021,1911109,0.0-1021.0,yacht,ship,yacht,,,,1,,,,,,1,False,True,0.573249475065072,3,Correct,999.0,999.0
142,2063,2548.39999999991,<h1>jacket</h1><br><br><br> Please press space as soon as you recall the target.,32,10,5,CuePresentation,True,True,4,,,True,11_8_2023_10_9_34,0hfly3uzy7qnhxp,html-keyboard-response,1025,1917140,0.0-1025.0,blazer,jacket,blazer,,,,2,,,,,,1,True,True,1.00000002728999,5,Correct,999.0,999.0
143,2065,4676.89999999991,<h1>block</h1><br><br><br> Please press space as soon as you recall the target.,32,10,6,CuePresentation,False,True,4,,,True,11_8_2023_10_9_34,0hfly3uzy7qnhxp,html-keyboard-response,1029,1926857,0.0-1029.0,breeze,block,kayak,,,,4,,,,,,0,True,True,0.234036216185256,2,Intrusion,0.17859410063608713,0.44901949871931207
144,2067,6961.39999999991,<h1>sundae</h1><br><br><br> Please press space as soon as you recall the target.,32,10,7,CuePresentation,True,True,4,,,True,11_8_2023_10_9_34,0hfly3uzy7qnhxp,html-keyboard-response,1033,1937175,0.0-1033.0,sushi,sundae,sushi,,,,5,,,,,,1,True,True,0.610210725864509,4,Correct,999.0,999.0
145,2069,1100.29999999981,<h1>mouth</h1><br><br><br> Please press space as soon as you recall the target.,32,10,8,CuePresentation,True,True,4,,,True,11_8_2023_10_9_34,0hfly3uzy7qnhxp,html-keyboard-response,1037,1941541,0.0-1037.0,nose,mouth,nose,,,,8,,,,,,1,False,True,0.661824468395778,4,Correct,999.0,999.0
146,2071,1324.5,<h1>globe</h1><br><br><br> Please press space as soon as you recall the target.,32,10,9,CuePresentation,True,True,4,,,True,11_8_2023_10_9_34,0hfly3uzy7qnhxp,html-keyboard-response,1041,1946328,0.0-1041.0,coal,globe,coal,,,,3,,,,,,1,False,True,0.0521687423182363,1,Correct,999.0,999.0
147,2073,1081.20000000019,<h1>zipper</h1><br><br><br> Please press space as soon as you recall the target.,32,10,10,CuePresentation,False,True,4,,,True,11_8_2023_10_9_34,0hfly3uzy7qnhxp,html-keyboard-response,1045,1950115,0.0-1045.0,bluckel,zipper,buckle,,,,6,,,,,,0,False,True,0.948896955583809,5,Misspelled Intrusion,999.0,999.0
148,2226,4778.0,<h1>possum</h1><br><br><br> Please press space as soon as you recall the target.,32,30,1,CuePresentation,False,True,1,,,True,29_8_2023_13_37_33,185sj0p6eo8tfyo,html-keyboard-response,329,595942,0.0-329.0,hum,possum,slime,,,,6,,,,,,0,False,False,0.299240600347622,2,Intrusion,0.021718233165258827,0.004824189572554191
149,2228,9442.0,<h1>cocoon</h1><br><br><br> Please press space as soon as you recall the target.,32,30,2,CuePresentation,False,True,1,,,True,29_8_2023_13_37_33,185sj0p6eo8tfyo,html-keyboard-response,333,608874,0.0-333.0,racoon,cocoon,yogurt,,,,14,,,,,,0,False,False,0.135617011678999,1,Intrusion,0.4233391001664682,-0.008841485851852555
150,2230,15738.0,<h1>dress</h1><br><br><br> Please press space as soon as you recall the target.,32,30,3,CuePresentation,False,True,1,,,True,29_8_2023_13_37_33,185sj0p6eo8tfyo,html-keyboard-response,337,629426,0.0-337.0,hel,dress,radio,,,,13,,,,,,0,False,False,0.003992160614718,1,Misspelled Intrusion,999.0,999.0
151,2232,3124.0,<h1>leash</h1><br><br><br> Please press space as soon as you recall the target.,32,30,4,CuePresentation,False,True,1,,,True,29_8_2023_13_37_33,185sj0p6eo8tfyo,html-keyboard-response,341,636981,0.0-341.0,quiche,leash,drink,,,,5,,,,,,0,True,False,0.108463556475143,1,Intrusion,0.0056054063898035794,0.38424016638702346
152,2234,3029.0,<h1>seed</h1><br><br><br> Please press space as soon as you recall the target.,32,30,5,CuePresentation,False,True,1,,,True,29_8_2023_13_37_33,185sj0p6eo8tfyo,html-keyboard-response,345,644381,0.0-345.0,plant,seed,leaf,,,,4,,,,,,0,True,False,0.449197073479032,3,Intrusion,0.4830816642194358,0.48463424832520885
153,2236,12918.9999999999,<h1>crutch</h1><br><br><br> Please press space as soon as you recall the target.,32,30,6,CuePresentation,False,True,1,,,True,29_8_2023_13_37_33,185sj0p6eo8tfyo,html-keyboard-response,349,662012,0.0-349.0,limp,crutch,camel,,,,7,,,,,,0,True,False,0.366853562408624,2,Intrusion,0.11841874948743318,0.15942946149233858
154,2238,10185.0,<h1>sandal</h1><br><br><br> Please press space as soon as you recall the target.,32,30,7,CuePresentation,False,True,1,,,True,29_8_2023_13_37_33,185sj0p6eo8tfyo,html-keyboard-response,353,675391,0.0-353.0,beach,sandal,insole,,,,3,,,,,,0,False,False,0.854520532339466,5,Intrusion,0.265764334344261,0.19745233752943656
155,2240,2530.00000000012,<h1>blazer</h1><br><br><br> Please press space as soon as you recall the target.,32,30,8,CuePresentation,False,True,1,,,True,29_8_2023_13_37_33,185sj0p6eo8tfyo,html-keyboard-response,357,681674,0.0-357.0,dress,blazer,jacket,,,,9,,,,,,0,True,False,1.00000002728999,5,Intrusion,0.6015599392863394,0.6015599392863394
156,2242,2596.0,<h1>barrel</h1><br><br><br> Please press space as soon as you recall the target.,32,30,9,CuePresentation,False,True,1,,,True,29_8_2023_13_37_33,185sj0p6eo8tfyo,html-keyboard-response,361,690504,0.0-361.0,arrow,barrel,crane,,,,24,,,,,,0,False,False,0.375189052412563,2,Intrusion,0.3852769887200088,0.34162357478195476
157,2244,7282.0,<h1>vial</h1><br><br><br> Please press space as soon as you recall the target.,32,30,10,CuePresentation,False,True,1,,,True,29_8_2023_13_37_33,185sj0p6eo8tfyo,html-keyboard-response,365,702097,0.0-365.0,possum,vial,goblet,,,,2,,,,,,0,True,False,0.665338846800113,4,Intrusion,0.2652706190969337,0.20271650339876895
158,2366,4110.0,<h1>napkin</h1><br><br><br> Please press space as soon as you recall the target.,32,20,1,CuePresentation,True,True,2,,,True,29_8_2023_13_37_33,185sj0p6eo8tfyo,html-keyboard-response,617,1150904,0.0-617.0,tinsel,napkin,tinsel,,,,5,,,,,,1,True,False,0.433620537301468,3,Correct,999.0,999.0
159,2368,8515.0,<h1>fudge</h1><br><br><br> Please press space as soon as you recall the target.,32,20,2,CuePresentation,False,True,2,,,True,29_8_2023_13_37_33,185sj0p6eo8tfyo,html-keyboard-response,621,1164193,0.0-621.0,quinua,fudge,rifle,,,,8,,,,,,0,False,False,0.0253189744766434,1,Misspelled Intrusion,999.0,999.0
160,2370,1332.0,<h1>potato</h1><br><br><br> Please press space as soon as you recall the target.,32,20,3,CuePresentation,True,True,2,,,True,29_8_2023_13_37_33,185sj0p6eo8tfyo,html-keyboard-response,625,1172534,0.0-625.0,chips,potato,chips,,,,4,,,,,,1,True,False,0.603917424192587,4,Correct,999.0,999.0
161,2372,11101.0,<h1>moose</h1><br><br><br> Please press space as soon as you recall the target.,32,20,4,CuePresentation,False,True,2,,,True,29_8_2023_13_37_33,185sj0p6eo8tfyo,html-keyboard-response,629,1189942,0.0-629.0,snake,moose,cactus,,,,3,,,,,,0,False,False,0.346216021008962,2,Intrusion,0.49522492741826607,0.40787909612978945
162,2374,5610.0,<h1>crank</h1><br><br><br> Please press space as soon as you recall the target.,32,20,5,CuePresentation,False,True,2,,,True,29_8_2023_13_37_33,185sj0p6eo8tfyo,html-keyboard-response,633,1200097,0.0-633.0,crn,crank,pulley,,,,9,,,,,,0,True,False,0.999999982961594,5,Misspelled Intrusion,999.0,999.0
163,2376,2494.0,<h1>kite</h1><br><br><br> Please press space as soon as you recall the target.,32,20,6,CuePresentation,False,True,2,,,True,29_8_2023_13_37_33,185sj0p6eo8tfyo,html-keyboard-response,637,1205985,0.0-637.0,noose,kite,record,,,,13,,,,,,0,False,False,0.150266880798289,1,Intrusion,0.41761641876069877,0.0782398846539463
164,2378,1795.0,<h1>otter</h1><br><br><br> Please press space as soon as you recall the target.,32,20,7,CuePresentation,False,True,2,,,True,29_8_2023_13_37_33,185sj0p6eo8tfyo,html-keyboard-response,641,1211177,0.0-641.0,moose,otter,iguana,,,,1,,,,,,0,False,False,0.866536373711664,5,Intrusion,0.518500628092356,0.5061479871622042
165,2380,2525.0,<h1>pipe</h1><br><br><br> Please press space as soon as you recall the target.,32,20,8,CuePresentation,False,True,2,,,True,29_8_2023_13_37_33,185sj0p6eo8tfyo,html-keyboard-response,645,1217278,0.0-645.0,drain,pipe,paper,,,,20,,,,,,0,False,False,0.258097566940599,2,Intrusion,0.6054441523130167,0.1924482674171217
166,2382,6012.99999999977,<h1>prism</h1><br><br><br> Please press space as soon as you recall the target.,32,20,9,CuePresentation,False,True,2,,,True,29_8_2023_13_37_33,185sj0p6eo8tfyo,html-keyboard-response,649,1227546,0.0-649.0,jewel,prism,ring,,,,7,,,,,,0,True,False,0.359066430514316,2,Intrusion,0.1878109839071544,0.35510986802493244
167,2384,4255.0,<h1>lens</h1><br><br><br> Please press space as soon as you recall the target.,32,20,10,CuePresentation,False,True,2,,,True,29_8_2023_13_37_33,185sj0p6eo8tfyo,html-keyboard-response,653,1235578,0.0-653.0,camera,lens,crepe,,,,2,,,,,,0,True,False,0.0896239999584382,1,Intrusion,0.676703225308897,0.02635482479655655
168,2476,2083.0,<h1>boar</h1><br><br><br> Please press space as soon as you recall the target.,32,10,1,CuePresentation,False,True,3,,,True,29_8_2023_13_37_33,185sj0p6eo8tfyo,html-keyboard-response,825,1544049,0.0-825.0,moat,boar,coat,,,,10,,,,,,0,False,False,0.281532111177466,2,Intrusion,0.17351642954463947,0.22698657140720768
169,2478,1357.0,<h1>prune</h1><br><br><br> Please press space as soon as you recall the target.,32,10,2,CuePresentation,False,True,3,,,True,29_8_2023_13_37_33,185sj0p6eo8tfyo,html-keyboard-response,829,1548570,0.0-829.0,juice,prune,thorn,,,,1,,,,,,0,False,False,0.999999978936332,5,Intrusion,0.3517692278878137,0.3517692278878137
170,2480,5742.00000000023,<h1>makeup</h1><br><br><br> Please press space as soon as you recall the target.,32,10,3,CuePresentation,False,True,3,,,True,29_8_2023_13_37_33,185sj0p6eo8tfyo,html-keyboard-response,833,1557419,0.0-833.0,book,makeup,paint,,,,8,,,,,,0,False,False,0.505935810169567,3,Intrusion,0.12385826850285826,0.13596882866397125
171,2482,4222.0,<h1>folder</h1><br><br><br> Please press space as soon as you recall the target.,32,10,4,CuePresentation,False,True,3,,,True,29_8_2023_13_37_33,185sj0p6eo8tfyo,html-keyboard-response,837,1565486,0.0-837.0,moat,folder,file,,,,6,,,,,,0,False,False,0.761074923120327,4,Intrusion,0.1199673848314194,0.011867560116924355
172,2484,3014.99999999977,<h1>bucket</h1><br><br><br> Please press space as soon as you recall the target.,32,10,5,CuePresentation,False,True,3,,,True,29_8_2023_13_37_33,185sj0p6eo8tfyo,html-keyboard-response,841,1571770,0.0-841.0,moat,bucket,shovel,,,,9,,,,,,0,True,False,1.00000008526887,5,Intrusion,0.13546747160041497,0.13546747160041497
173,2486,3429.0,<h1>shorts</h1><br><br><br> Please press space as soon as you recall the target.,32,10,6,CuePresentation,False,True,3,,,True,29_8_2023_13_37_33,185sj0p6eo8tfyo,html-keyboard-response,845,1580685,0.0-845.0,jute,shorts,raft,,,,4,,,,,,0,True,False,0.213414433174442,2,Intrusion,0.397356323021776,0.09589172321614774
174,2488,8994.0,<h1>weed</h1><br><br><br> Please press space as soon as you recall the target.,32,10,7,CuePresentation,False,True,3,,,True,29_8_2023_13_37_33,185sj0p6eo8tfyo,html-keyboard-response,849,1592957,0.0-849.0,boar,weed,binder,,,,2,,,,,,0,True,False,0.193818930259629,1,Intrusion,0.35025148252390353,-0.025141994872777886
175,2490,2351.00000000023,<h1>toilet</h1><br><br><br> Please press space as soon as you recall the target.,32,10,8,CuePresentation,False,True,3,,,True,29_8_2023_13_37_33,185sj0p6eo8tfyo,html-keyboard-response,853,1599032,0.0-853.0,bowl,toilet,desk,,,,7,,,,,,0,True,False,0.427165723387472,3,Intrusion,0.36776180215010956,0.19877217555789695
176,2492,4734.0,<h1>sponge</h1><br><br><br> Please press space as soon as you recall the target.,32,10,9,CuePresentation,False,True,3,,,True,29_8_2023_13_37_33,185sj0p6eo8tfyo,html-keyboard-response,857,1606904,0.0-857.0,shorts,sponge,watch,,,,3,,,,,,0,False,False,0.17659200800734,1,Intrusion,0.1708885874409645,0.2875971053986141
177,2494,6988.99999999977,<h1>sundae</h1><br><br><br> Please press space as soon as you recall the target.,32,10,10,CuePresentation,False,True,3,,,True,29_8_2023_13_37_33,185sj0p6eo8tfyo,html-keyboard-response,861,1617789,0.0-861.0,seeds,sundae,sushi,,,,5,,,,,,0,True,False,0.610210725864509,4,Intrusion,0.2683146938349975,0.12844468010965568
178,2580,15446.0,<h1>eagle</h1><br><br><br> Please press space as soon as you recall the target.,32,8,1,CuePresentation,False,True,4,,,True,29_8_2023_13_37_33,185sj0p6eo8tfyo,html-keyboard-response,1017,1901005,0.0-1017.0,brach,eagle,hawk,,,,6,,,,,,0,False,False,1.00000004736111,5,Intrusion,0.1321689842393075,0.1321689842393075
179,2582,8171.0,<h1>stem</h1><br><br><br> Please press space as soon as you recall the target.,32,8,2,CuePresentation,False,True,4,,,True,29_8_2023_13_37_33,185sj0p6eo8tfyo,html-keyboard-response,1021,1913104,0.0-1021.0,cream,stem,stump,,,,2,,,,,,0,True,False,0.402091789020628,3,Intrusion,0.16589856499597788,0.20274687992419882
180,2584,7570.0,<h1>target</h1><br><br><br> Please press space as soon as you recall the target.,32,8,3,CuePresentation,False,True,4,,,True,29_8_2023_13_37_33,185sj0p6eo8tfyo,html-keyboard-response,1025,1924835,0.0-1025.0,leech,target,clasp,,,,3,,,,,,0,False,False,0.263086746212108,2,Intrusion,0.21405596706664756,0.21929844647226387
181,2586,6523.0,<h1>monkey</h1><br><br><br> Please press space as soon as you recall the target.,32,8,4,CuePresentation,False,True,4,,,True,29_8_2023_13_37_33,185sj0p6eo8tfyo,html-keyboard-response,1029,1934717,0.0-1029.0,practice,monkey,grill,,,,5,,,,,,0,True,False,0.0769030395339553,1,Intrusion,-0.010364276399051103,0.022178524076378325
182,2588,13713.0,<h1>pepper</h1><br><br><br> Please press space as soon as you recall the target.,32,8,5,CuePresentation,False,True,4,,,True,29_8_2023_13_37_33,185sj0p6eo8tfyo,html-keyboard-response,1033,1954068,0.0-1033.0,breach,pepper,game,,,,1,,,,,,0,False,False,0.0586781382709476,1,Intrusion,0.03141050178011757,0.12742850307500225
183,2590,3541.0,<h1>donkey</h1><br><br><br> Please press space as soon as you recall the target.,32,8,6,CuePresentation,False,True,4,,,True,29_8_2023_13_37_33,185sj0p6eo8tfyo,html-keyboard-response,1037,1963576,0.0-1037.0,monkey,donkey,throne,,,,8,,,,,,0,False,False,0.108564855475739,1,Intrusion,0.9999999967845237,0.10856485547573878
184,2592,2237.0,<h1>bolt</h1><br><br><br> Please press space as soon as you recall the target.,32,8,7,CuePresentation,False,True,4,,,True,29_8_2023_13_37_33,185sj0p6eo8tfyo,html-keyboard-response,1041,1970871,0.0-1041.0,noose,bolt,towel,,,,7,,,,,,0,True,False,0.275631401009094,2,Intrusion,0.5024551797577851,0.46949372582652754
185,2594,2266.0,<h1>tiara</h1><br><br><br> Please press space as soon as you recall the target.,32,8,8,CuePresentation,True,True,4,,,True,29_8_2023_13_37_33,185sj0p6eo8tfyo,html-keyboard-response,1045,1976243,0.0-1045.0,kilt,tiara,kilt,,,,4,,,,,,1,True,False,0.750416700964624,4,Correct,999.0,999.0
186,2699,660.599999964237,<h1>folder</h1><br><br><br> Please press space as soon as you recall the target.,32,14,1,CuePresentation,True,True,1,,,True,8_8_2023_9_10_3,1es7mkttar25fxg,html-keyboard-response,201,392261,0.0-201.0,file,folder,file,,,,9,,,,,,1,True,True,0.761074923120327,4,Correct,999.0,999.0
187,2701,1101.69999998808,<h1>binder</h1><br><br><br> Please press space as soon as you recall the target.,32,14,2,CuePresentation,True,True,1,,,True,8_8_2023_9_10_3,1es7mkttar25fxg,html-keyboard-response,205,396301,0.0-205.0,weed,binder,weed,,,,1,,,,,,1,False,True,0.193818930259629,1,Correct,999.0,999.0
188,2703,1334.70000004768,<h1>gravy</h1><br><br><br> Please press space as soon as you recall the target.,32,14,3,CuePresentation,True,True,1,,,True,8_8_2023_9_10_3,1es7mkttar25fxg,html-keyboard-response,209,400405,0.0-209.0,grits,gravy,grits,,,,3,,,,,,1,False,True,0.999999922215502,5,Correct,999.0,999.0
189,2705,1407.19999998808,<h1>kite</h1><br><br><br> Please press space as soon as you recall the target.,32,14,4,CuePresentation,True,True,1,,,True,8_8_2023_9_10_3,1es7mkttar25fxg,html-keyboard-response,213,404550,0.0-213.0,record,kite,record,,,,4,,,,,,1,True,True,0.150266880798289,1,Correct,999.0,999.0
190,2707,605.299999952316,<h1>boar</h1><br><br><br> Please press space as soon as you recall the target.,32,14,5,CuePresentation,True,True,1,,,True,8_8_2023_9_10_3,1es7mkttar25fxg,html-keyboard-response,217,407992,0.0-217.0,coat,boar,coat,,,,6,,,,,,1,False,True,0.281532111177466,2,Correct,999.0,999.0
191,2709,626.699999988079,<h1>alpaca</h1><br><br><br> Please press space as soon as you recall the target.,32,14,6,CuePresentation,True,True,1,,,True,8_8_2023_9_10_3,1es7mkttar25fxg,html-keyboard-response,221,411867,0.0-221.0,yarn,alpaca,yarn,,,,13,,,,,,1,False,True,0.730008656413105,4,Correct,999.0,999.0
192,2711,724.5,<h1>juice</h1><br><br><br> Please press space as soon as you recall the target.,32,14,7,CuePresentation,True,True,1,,,True,8_8_2023_9_10_3,1es7mkttar25fxg,html-keyboard-response,225,416961,0.0-225.0,soda,juice,soda,,,,12,,,,,,1,False,True,0.636879768274072,4,Correct,999.0,999.0
193,2713,1960.30000001192,<h1>chip</h1><br><br><br> Please press space as soon as you recall the target.,32,14,8,CuePresentation,True,True,1,,,True,8_8_2023_9_10_3,1es7mkttar25fxg,html-keyboard-response,229,421565,0.0-229.0,tablet,chip,tablet,,,,7,,,,,,1,True,True,0.423135805458718,3,Correct,999.0,999.0
194,2715,861.699999988079,<h1>quiche</h1><br><br><br> Please press space as soon as you recall the target.,32,14,9,CuePresentation,True,True,1,,,True,8_8_2023_9_10_3,1es7mkttar25fxg,html-keyboard-response,233,425676,0.0-233.0,pasta,quiche,pasta,,,,5,,,,,,1,True,True,1.00000006075905,5,Correct,999.0,999.0
195,2717,4759.60000002384,<h1>blind</h1><br><br><br> Please press space as soon as you recall the target.,32,14,10,CuePresentation,False,True,1,,,True,8_8_2023_9_10_3,1es7mkttar25fxg,html-keyboard-response,237,434017,0.0-237.0,,blind,switch,,,,2,,,,,,0,True,True,0.252173754849272,2,Omission,999.0,999.0
196,2851,4901.19999998808,<h1>moth</h1><br><br><br> Please press space as soon as you recall the target.,32,24,1,CuePresentation,False,True,2,,,True,8_8_2023_9_10_3,1es7mkttar25fxg,html-keyboard-response,521,968229,0.0-521.0,linen,moth,fungus,,,,16,,,,,,0,False,True,0.421186232744235,3,Intrusion,0.16864984236867864,0.10311209533274379
197,2853,6612.69999998808,<h1>coyote</h1><br><br><br> Please press space as soon as you recall the target.,32,24,2,CuePresentation,False,True,2,,,True,8_8_2023_9_10_3,1es7mkttar25fxg,html-keyboard-response,525,978341,0.0-525.0,0,coyote,cobra,,,,9,,,,,,0,True,True,0.579578025639824,3,Omission,999.0,999.0
198,2855,841.199999988079,<h1>nose</h1><br><br><br> Please press space as soon as you recall the target.,32,24,3,CuePresentation,True,True,2,,,True,8_8_2023_9_10_3,1es7mkttar25fxg,html-keyboard-response,529,981850,0.0-529.0,mouth,nose,mouth,,,,1,,,,,,1,False,True,0.661824468395778,4,Correct,999.0,999.0
199,2857,3393.19999998808,<h1>crane</h1><br><br><br> Please press space as soon as you recall the target.,32,24,4,CuePresentation,True,True,2,,,True,8_8_2023_9_10_3,1es7mkttar25fxg,html-keyboard-response,533,988277,0.0-533.0,barrel,crane,barrel,,,,5,,,,,,1,True,True,0.375189052412563,2,Correct,999.0,999.0
200,2859,765.899999976158,<h1>jersey</h1><br><br><br> Please press space as soon as you recall the target.,32,24,5,CuePresentation,True,True,2,,,True,8_8_2023_9_10_3,1es7mkttar25fxg,html-keyboard-response,537,991957,0.0-537.0,shirt,jersey,shirt,,,,17,,,,,,1,False,True,0.649010826232407,4,Correct,999.0,999.0
201,2861,3390.20000004768,<h1>chili</h1><br><br><br> Please press space as soon as you recall the target.,32,24,6,CuePresentation,False,True,2,,,True,8_8_2023_9_10_3,1es7mkttar25fxg,html-keyboard-response,541,998058,0.0-541.0,crayon,chili,clove,,,,22,,,,,,0,False,True,0.713132070649667,4,Intrusion,0.09681504506306583,0.09532585549711955
202,2863,1852.0,<h1>slime</h1><br><br><br> Please press space as soon as you recall the target.,32,24,7,CuePresentation,True,True,2,,,True,8_8_2023_9_10_3,1es7mkttar25fxg,html-keyboard-response,545,1003100,0.0-545.0,possum,slime,possum,,,,3,,,,,,1,False,True,0.299240600347622,2,Correct,999.0,999.0
203,2865,2849.60000002384,<h1>flag</h1><br><br><br> Please press space as soon as you recall the target.,32,24,8,CuePresentation,False,True,2,,,True,8_8_2023_9_10_3,1es7mkttar25fxg,html-keyboard-response,549,1009150,0.0-549.0,0,flag,banner,,,,4,,,,,,0,True,True,0.616673037290324,4,Omission,999.0,999.0
204,2867,1051.89999997616,<h1>insole</h1><br><br><br> Please press space as soon as you recall the target.,32,24,9,CuePresentation,False,True,2,,,True,8_8_2023_9_10_3,1es7mkttar25fxg,html-keyboard-response,553,1012749,0.0-553.0,shoe,insole,sandal,,,,2,,,,,,0,True,True,0.854520532339466,5,Intrusion,0.9999999697989511,0.8545205323394657
205,2869,7129.80000001192,<h1>beard</h1><br><br><br> Please press space as soon as you recall the target.,32,24,10,CuePresentation,True,True,2,,,True,8_8_2023_9_10_3,1es7mkttar25fxg,html-keyboard-response,557,1022491,0.0-557.0,puck,beard,puck,,,,7,,,,,,1,True,True,0.158674531855931,1,Correct,999.0,999.0
206,2943,2970.0,<h1>chime</h1><br><br><br> Please press space as soon as you recall the target.,32,4,1,CuePresentation,True,True,3,,,True,8_8_2023_9_10_3,1es7mkttar25fxg,html-keyboard-response,681,1268138,0.0-681.0,cape,chime,cape,,,,4,,,,,,1,True,True,0.257361994057368,2,Correct,999.0,999.0
207,2945,969.300000011921,<h1>bonsai</h1><br><br><br> Please press space as soon as you recall the target.,32,4,2,CuePresentation,True,True,3,,,True,8_8_2023_9_10_3,1es7mkttar25fxg,html-keyboard-response,685,1271801,0.0-685.0,tulip,bonsai,tulip,,,,3,,,,,,1,False,True,0.549562972213874,3,Correct,999.0,999.0
208,2947,1069.69999998808,<h1>sink</h1><br><br><br> Please press space as soon as you recall the target.,32,4,3,CuePresentation,True,True,3,,,True,8_8_2023_9_10_3,1es7mkttar25fxg,html-keyboard-response,689,1277111,0.0-689.0,drain,sink,drain,,,,1,,,,,,1,False,True,0.631240283731934,4,Correct,999.0,999.0
209,2949,3734.89999997616,<h1>coal</h1><br><br><br> Please press space as soon as you recall the target.,32,4,4,CuePresentation,True,True,3,,,True,8_8_2023_9_10_3,1es7mkttar25fxg,html-keyboard-response,693,1283548,0.0-693.0,globe,coal,globe,,,,2,,,,,,1,True,True,0.0521687423182363,1,Correct,999.0,999.0
210,3089,2578.20000004768,<h1>thorn</h1><br><br><br> Please press space as soon as you recall the target.,32,26,1,CuePresentation,False,True,4,,,True,8_8_2023_9_10_3,1es7mkttar25fxg,html-keyboard-response,993,1880350,0.0-993.0,rose,thorn,prune,,,,5,,,,,,0,True,True,0.999999978936332,5,Intrusion,0.2980214731589484,0.2980214731589484
211,3091,1719.80000001192,<h1>root</h1><br><br><br> Please press space as soon as you recall the target.,32,26,2,CuePresentation,True,True,4,,,True,8_8_2023_9_10_3,1es7mkttar25fxg,html-keyboard-response,997,1884882,0.0-997.0,squash,root,squash,,,,26,,,,,,1,False,True,0.246029577781375,2,Correct,999.0,999.0
212,3093,1203.80000001192,<h1>arrow</h1><br><br><br> Please press space as soon as you recall the target.,32,26,3,CuePresentation,True,True,4,,,True,8_8_2023_9_10_3,1es7mkttar25fxg,html-keyboard-response,1001,1889567,0.0-1001.0,walrus,arrow,walrus,,,,24,,,,,,1,False,True,0.213526926688011,2,Correct,999.0,999.0
213,3095,1571.09999996424,<h1>powder</h1><br><br><br> Please press space as soon as you recall the target.,32,26,4,CuePresentation,True,True,4,,,True,8_8_2023_9_10_3,1es7mkttar25fxg,html-keyboard-response,1005,1894275,0.0-1005.0,floss,powder,floss,,,,19,,,,,,1,False,True,0.48735431534364,3,Correct,999.0,999.0
214,3097,865.199999988079,<h1>cello</h1><br><br><br> Please press space as soon as you recall the target.,32,26,5,CuePresentation,True,True,4,,,True,8_8_2023_9_10_3,1es7mkttar25fxg,html-keyboard-response,1009,1897839,0.0-1009.0,violin,cello,violin,,,,21,,,,,,1,False,True,0.808485246694099,5,Correct,999.0,999.0
215,3099,973.800000011921,<h1>cherry</h1><br><br><br> Please press space as soon as you recall the target.,32,26,6,CuePresentation,True,True,4,,,True,8_8_2023_9_10_3,1es7mkttar25fxg,html-keyboard-response,1013,1902915,0.0-1013.0,bedpan,cherry,bedpan,,,,4,,,,,,1,True,True,0.0764883243696982,1,Correct,999.0,999.0
216,3101,1909.09999996424,<h1>clay</h1><br><br><br> Please press space as soon as you recall the target.,32,26,7,CuePresentation,True,True,4,,,True,8_8_2023_9_10_3,1es7mkttar25fxg,html-keyboard-response,1017,1908064,0.0-1017.0,tick,clay,tick,,,,13,,,,,,1,False,True,0.0153055198591734,1,Correct,999.0,999.0
217,3103,1291.69999998808,<h1>tiara</h1><br><br><br> Please press space as soon as you recall the target.,32,26,8,CuePresentation,True,True,4,,,True,8_8_2023_9_10_3,1es7mkttar25fxg,html-keyboard-response,1021,1912078,0.0-1021.0,kilt,tiara,kilt,,,,7,,,,,,1,True,True,0.750416700964624,4,Correct,999.0,999.0
218,3105,5849.0,<h1>block</h1><br><br><br> Please press space as soon as you recall the target.,32,26,9,CuePresentation,False,True,4,,,True,8_8_2023_9_10_3,1es7mkttar25fxg,html-keyboard-response,1025,1920804,0.0-1025.0,0,block,kayak,,,,9,,,,,,0,True,True,0.234036216185256,2,Omission,999.0,999.0
219,3107,1735.59999996424,<h1>paint</h1><br><br><br> Please press space as soon as you recall the target.,32,26,10,CuePresentation,False,True,4,,,True,8_8_2023_9_10_3,1es7mkttar25fxg,html-keyboard-response,1029,1926051,0.0-1029.0,0,paint,makeup,,,,2,,,,,,0,True,True,0.505935810169567,3,Omission,999.0,999.0
220,3212,2890.30000001192,<h1>teepee</h1><br><br><br> Please press space as soon as you recall the target.,32,14,1,CuePresentation,True,True,1,,,True,27_8_2023_13_39_55,1q549h1ymr6ts9q,html-keyboard-response,201,394486,0.0-201.0,stove,teepee,stove,,,,14,,,,,,1,False,True,0.441684669598265,3,Correct,999.0,999.0
221,3214,1251.39999997616,<h1>knife</h1><br><br><br> Please press space as soon as you recall the target.,32,14,2,CuePresentation,True,True,1,,,True,27_8_2023_13_39_55,1q549h1ymr6ts9q,html-keyboard-response,205,398671,0.0-205.0,sheath,knife,sheath,,,,8,,,,,,1,False,True,0.735375776651981,4,Correct,999.0,999.0
222,3216,945.300000011921,<h1>jersey</h1><br><br><br> Please press space as soon as you recall the target.,32,14,3,CuePresentation,False,True,1,,,True,27_8_2023_13_39_55,1q549h1ymr6ts9q,html-keyboard-response,209,402713,0.0-209.0,shrit,jersey,shirt,,,,9,,,,,,0,True,True,0.649010826232407,4,Misspelled Intrusion,999.0,999.0
223,3218,1523.5,<h1>puddle</h1><br><br><br> Please press space as soon as you recall the target.,32,14,4,CuePresentation,True,True,1,,,True,27_8_2023_13_39_55,1q549h1ymr6ts9q,html-keyboard-response,213,407042,0.0-213.0,sand,puddle,sand,,,,3,,,,,,1,False,True,0.676405431577326,4,Correct,999.0,999.0
224,3220,3360.90000000596,<h1>scoop</h1><br><br><br> Please press space as soon as you recall the target.,32,14,5,CuePresentation,False,True,1,,,True,27_8_2023_13_39_55,1q549h1ymr6ts9q,html-keyboard-response,217,414234,0.0-217.0,o,scoop,bonnet,,,,7,,,,,,0,True,True,0.295501525339056,2,unspecified,999.0,999.0
225,3222,3000.60000002384,<h1>beard</h1><br><br><br> Please press space as soon as you recall the target.,32,14,6,CuePresentation,True,True,1,,,True,27_8_2023_13_39_55,1q549h1ymr6ts9q,html-keyboard-response,221,419409,0.0-221.0,puck,beard,puck,,,,2,,,,,,1,True,True,0.158674531855931,1,Correct,999.0,999.0
226,3224,1501.0,<h1>pear</h1><br><br><br> Please press space as soon as you recall the target.,32,14,7,CuePresentation,True,True,1,,,True,27_8_2023_13_39_55,1q549h1ymr6ts9q,html-keyboard-response,225,423760,0.0-225.0,berry,pear,berry,,,,6,,,,,,1,False,True,0.83115578987111,5,Correct,999.0,999.0
227,3226,2047.80000001192,<h1>stump</h1><br><br><br> Please press space as soon as you recall the target.,32,14,8,CuePresentation,True,True,1,,,True,27_8_2023_13_39_55,1q549h1ymr6ts9q,html-keyboard-response,229,428979,0.0-229.0,stem,stump,stem,,,,4,,,,,,1,True,True,0.402091789020628,3,Correct,999.0,999.0
228,3228,1447.19999998808,<h1>grits</h1><br><br><br> Please press space as soon as you recall the target.,32,14,9,CuePresentation,True,True,1,,,True,27_8_2023_13_39_55,1q549h1ymr6ts9q,html-keyboard-response,233,434829,0.0-233.0,gravy,grits,gravy,,,,5,,,,,,1,True,True,0.999999922215502,5,Correct,999.0,999.0
229,3230,4019.80000001192,<h1>bonsai</h1><br><br><br> Please press space as soon as you recall the target.,32,14,10,CuePresentation,False,True,1,,,True,27_8_2023_13_39_55,1q549h1ymr6ts9q,html-keyboard-response,237,442195,0.0-237.0,o,bonsai,tulip,,,,12,,,,,,0,False,True,0.549562972213874,3,unspecified,999.0,999.0
230,3364,1233.0,<h1>goose</h1><br><br><br> Please press space as soon as you recall the target.,32,24,1,CuePresentation,True,True,2,,,True,27_8_2023_13_39_55,1q549h1ymr6ts9q,html-keyboard-response,521,976722,0.0-521.0,duck,goose,duck,,,,2,,,,,,1,True,True,0.626741263447438,4,Correct,999.0,999.0
231,3366,1155.20000001788,<h1>nose</h1><br><br><br> Please press space as soon as you recall the target.,32,24,2,CuePresentation,True,True,2,,,True,27_8_2023_13_39_55,1q549h1ymr6ts9q,html-keyboard-response,525,980463,0.0-525.0,mouth,nose,mouth,,,,14,,,,,,1,False,True,0.661824468395778,4,Correct,999.0,999.0
232,3368,4051.40000000596,<h1>moth</h1><br><br><br> Please press space as soon as you recall the target.,32,24,3,CuePresentation,False,True,2,,,True,27_8_2023_13_39_55,1q549h1ymr6ts9q,html-keyboard-response,529,987276,0.0-529.0,o,moth,fungus,,,,9,,,,,,0,True,True,0.421186232744235,3,unspecified,999.0,999.0
233,3370,3181.80000001192,<h1>juice</h1><br><br><br> Please press space as soon as you recall the target.,32,24,4,CuePresentation,True,True,2,,,True,27_8_2023_13_39_55,1q549h1ymr6ts9q,html-keyboard-response,533,992622,0.0-533.0,soda,juice,soda,,,,18,,,,,,1,False,True,0.636879768274072,4,Correct,999.0,999.0
234,3372,4341.69999998808,<h1>blower</h1><br><br><br> Please press space as soon as you recall the target.,32,24,5,CuePresentation,False,True,2,,,True,27_8_2023_13_39_55,1q549h1ymr6ts9q,html-keyboard-response,537,999934,0.0-537.0,o,blower,faucet,,,,23,,,,,,0,False,True,0.127666791564387,1,unspecified,999.0,999.0
235,3374,8139.69999998808,<h1>leash</h1><br><br><br> Please press space as soon as you recall the target.,32,24,6,CuePresentation,False,True,2,,,True,27_8_2023_13_39_55,1q549h1ymr6ts9q,html-keyboard-response,541,1010421,0.0-541.0,o,leash,drink,,,,4,,,,,,0,True,True,0.108463556475143,1,unspecified,999.0,999.0
236,3376,1643.29999998212,<h1>muffin</h1><br><br><br> Please press space as soon as you recall the target.,32,24,7,CuePresentation,True,True,2,,,True,27_8_2023_13_39_55,1q549h1ymr6ts9q,html-keyboard-response,545,1014357,0.0-545.0,crumb,muffin,crumb,,,,5,,,,,,1,True,True,0.999999975253751,5,Correct,999.0,999.0
237,3378,5309.59999999404,<h1>daisy</h1><br><br><br> Please press space as soon as you recall the target.,32,24,8,CuePresentation,False,True,2,,,True,27_8_2023_13_39_55,1q549h1ymr6ts9q,html-keyboard-response,549,1022593,0.0-549.0,o,daisy,riser,,,,7,,,,,,0,True,True,0.210706341768224,2,unspecified,999.0,999.0
238,3380,3540.79999998212,<h1>binder</h1><br><br><br> Please press space as soon as you recall the target.,32,24,9,CuePresentation,False,True,2,,,True,27_8_2023_13_39_55,1q549h1ymr6ts9q,html-keyboard-response,553,1028773,0.0-553.0,o,binder,weed,,,,19,,,,,,0,False,True,0.193818930259629,1,unspecified,999.0,999.0
239,3382,1698.80000001192,<h1>leech</h1><br><br><br> Please press space as soon as you recall the target.,32,24,10,CuePresentation,True,True,2,,,True,27_8_2023_13_39_55,1q549h1ymr6ts9q,html-keyboard-response,557,1033093,0.0-557.0,worm,leech,worm,,,,17,,,,,,1,False,True,0.809647988325674,5,Correct,999.0,999.0
240,3522,3987.79999998212,<h1>clove</h1><br><br><br> Please press space as soon as you recall the target.,32,26,1,CuePresentation,False,True,3,,,True,27_8_2023_13_39_55,1q549h1ymr6ts9q,html-keyboard-response,857,1578157,0.0-857.0,o,clove,chili,,,,16,,,,,,0,False,True,0.713132070649667,4,unspecified,999.0,999.0
241,3524,4239.09999999404,<h1>wrist</h1><br><br><br> Please press space as soon as you recall the target.,32,26,2,CuePresentation,False,True,3,,,True,27_8_2023_13_39_55,1q549h1ymr6ts9q,html-keyboard-response,861,1584645,0.0-861.0,mouth,wrist,knee,,,,21,,,,,,0,False,True,0.669356171840164,4,Intrusion,0.3544460853174578,0.28161006786097237
242,3526,3271.5,<h1>earwig</h1><br><br><br> Please press space as soon as you recall the target.,32,26,3,CuePresentation,False,True,3,,,True,27_8_2023_13_39_55,1q549h1ymr6ts9q,html-keyboard-response,865,1590847,0.0-865.0,o,earwig,walnut,,,,2,,,,,,0,True,True,0.242173377562161,2,unspecified,999.0,999.0
243,3528,1343.90000000596,<h1>coffee</h1><br><br><br> Please press space as soon as you recall the target.,32,26,4,CuePresentation,True,True,3,,,True,27_8_2023_13_39_55,1q549h1ymr6ts9q,html-keyboard-response,869,1594341,0.0-869.0,teabag,coffee,teabag,,,,5,,,,,,1,True,True,0.806588166583034,5,Correct,999.0,999.0
244,3530,1710.0,<h1>closet</h1><br><br><br> Please press space as soon as you recall the target.,32,26,5,CuePresentation,True,True,3,,,True,27_8_2023_13_39_55,1q549h1ymr6ts9q,html-keyboard-response,873,1599554,0.0-873.0,camper,closet,camper,,,,15,,,,,,1,False,True,0.336314072358579,2,Correct,999.0,999.0
245,3532,1319.0,<h1>makeup</h1><br><br><br> Please press space as soon as you recall the target.,32,26,6,CuePresentation,True,True,3,,,True,27_8_2023_13_39_55,1q549h1ymr6ts9q,html-keyboard-response,877,1603837,0.0-877.0,paint,makeup,paint,,,,4,,,,,,1,True,True,0.505935810169567,3,Correct,999.0,999.0
246,3534,2931.09999999404,<h1>branch</h1><br><br><br> Please press space as soon as you recall the target.,32,26,7,CuePresentation,False,True,3,,,True,27_8_2023_13_39_55,1q549h1ymr6ts9q,html-keyboard-response,881,1609477,0.0-881.0,o,branch,train,,,,12,,,,,,0,False,True,0.401947106568526,3,unspecified,999.0,999.0
247,3536,1980.90000000596,<h1>chips</h1><br><br><br> Please press space as soon as you recall the target.,32,26,8,CuePresentation,True,True,3,,,True,27_8_2023_13_39_55,1q549h1ymr6ts9q,html-keyboard-response,885,1613610,0.0-885.0,potato,chips,potato,,,,7,,,,,,1,True,True,0.603917424192587,4,Correct,999.0,999.0
248,3538,1275.0,<h1>sheet</h1><br><br><br> Please press space as soon as you recall the target.,32,26,9,CuePresentation,True,True,3,,,True,27_8_2023_13_39_55,1q549h1ymr6ts9q,html-keyboard-response,889,1619160,0.0-889.0,suit,sheet,suit,,,,9,,,,,,1,True,True,0.153411380957624,1,Correct,999.0,999.0
249,3540,4410.19999998808,<h1>melon</h1><br><br><br> Please press space as soon as you recall the target.,32,26,10,CuePresentation,False,True,3,,,True,27_8_2023_13_39_55,1q549h1ymr6ts9q,html-keyboard-response,893,1626232,0.0-893.0,o,melon,radish,,,,19,,,,,,0,False,True,0.568227410855373,3,unspecified,999.0,999.0
250,3614,1698.0,<h1>panda</h1><br><br><br> Please press space as soon as you recall the target.,32,4,1,CuePresentation,True,True,4,,,True,27_8_2023_13_39_55,1q549h1ymr6ts9q,html-keyboard-response,1017,1829241,0.0-1017.0,tiger,panda,tiger,,,,3,,,,,,1,False,True,1.0000000621733,5,Correct,999.0,999.0
251,3616,9737.59999999404,<h1>kiwi</h1><br><br><br> Please press space as soon as you recall the target.,32,4,2,CuePresentation,False,True,4,,,True,27_8_2023_13_39_55,1q549h1ymr6ts9q,html-keyboard-response,1021,1841745,0.0-1021.0,o,kiwi,apple,,,,4,,,,,,0,True,True,0.630507650883796,4,unspecified,999.0,999.0
252,3618,1837.5,<h1>cocoon</h1><br><br><br> Please press space as soon as you recall the target.,32,4,3,CuePresentation,False,True,4,,,True,27_8_2023_13_39_55,1q549h1ymr6ts9q,html-keyboard-response,1025,1845801,0.0-1025.0,o,cocoon,yogurt,,,,1,,,,,,0,False,True,0.135617011678999,1,unspecified,999.0,999.0
253,3620,4909.90000000596,<h1>crayon</h1><br><br><br> Please press space as soon as you recall the target.,32,4,4,CuePresentation,False,True,4,,,True,27_8_2023_13_39_55,1q549h1ymr6ts9q,html-keyboard-response,1029,1853160,0.0-1029.0,o,crayon,poppy,,,,2,,,,,,0,True,True,0.237959707772953,2,unspecified,999.0,999.0
254,3719,1742.90000000014,<h1>visor</h1><br><br><br> Please press space as soon as you recall the target.,32,12,1,CuePresentation,True,True,1,,,True,12_8_2023_9_45_3,1u1x4rm6fx3toou,html-keyboard-response,185,362037,0.0-185.0,helmet,visor,helmet,,,,1,,,,,,1,False,True,1.0000000639651,5,Correct,999.0,999.0
255,3721,4659.09999999986,<h1>drink</h1><br><br><br> Please press space as soon as you recall the target.,32,12,2,CuePresentation,True,True,1,,,True,12_8_2023_9_45_3,1u1x4rm6fx3toou,html-keyboard-response,189,370464,0.0-189.0,leash,drink,leash,,,,2,,,,,,1,True,True,0.108463556475143,1,Correct,999.0,999.0
256,3723,2085.5,<h1>crane</h1><br><br><br> Please press space as soon as you recall the target.,32,12,3,CuePresentation,True,True,1,,,True,12_8_2023_9_45_3,1u1x4rm6fx3toou,html-keyboard-response,193,377930,0.0-193.0,barrel,crane,barrel,,,,11,,,,,,1,False,True,0.375189052412563,2,Correct,999.0,999.0
257,3725,1101.5,<h1>panda</h1><br><br><br> Please press space as soon as you recall the target.,32,12,4,CuePresentation,True,True,1,,,True,12_8_2023_9_45_3,1u1x4rm6fx3toou,html-keyboard-response,197,382674,0.0-197.0,tiger,panda,tiger,,,,3,,,,,,1,False,True,1.0000000621733,5,Correct,999.0,999.0
258,3727,1572.39999999991,<h1>wolf</h1><br><br><br> Please press space as soon as you recall the target.,32,12,5,CuePresentation,True,True,1,,,True,12_8_2023_9_45_3,1u1x4rm6fx3toou,html-keyboard-response,201,387740,0.0-201.0,bowtie,wolf,bowtie,,,,4,,,,,,1,True,True,0.208376515332164,2,Correct,999.0,999.0
259,3729,3614.19999999995,<h1>floss</h1><br><br><br> Please press space as soon as you recall the target.,32,12,6,CuePresentation,True,True,1,,,True,12_8_2023_9_45_3,1u1x4rm6fx3toou,html-keyboard-response,205,395454,0.0-205.0,powder,floss,powder,,,,9,,,,,,1,True,True,0.48735431534364,3,Correct,999.0,999.0
260,3731,4848.30000000005,<h1>parrot</h1><br><br><br> Please press space as soon as you recall the target.,32,12,7,CuePresentation,True,True,1,,,True,12_8_2023_9_45_3,1u1x4rm6fx3toou,html-keyboard-response,209,403986,0.0-209.0,turtle,parrot,turtle,,,,7,,,,,,1,True,True,0.65206421477411,4,Correct,999.0,999.0
261,3733,2516.90000000014,<h1>drain</h1><br><br><br> Please press space as soon as you recall the target.,32,12,8,CuePresentation,True,True,1,,,True,12_8_2023_9_45_3,1u1x4rm6fx3toou,html-keyboard-response,213,410097,0.0-213.0,sink,drain,sink,,,,12,,,,,,1,False,True,0.631240283731934,4,Correct,999.0,999.0
262,3735,2281.30000000005,<h1>clove</h1><br><br><br> Please press space as soon as you recall the target.,32,12,9,CuePresentation,True,True,1,,,True,12_8_2023_9_45_3,1u1x4rm6fx3toou,html-keyboard-response,217,417514,0.0-217.0,chili,clove,chili,,,,6,,,,,,1,False,True,0.713132070649667,4,Correct,999.0,999.0
263,3737,1929.0,<h1>gravy</h1><br><br><br> Please press space as soon as you recall the target.,32,12,10,CuePresentation,True,True,1,,,True,12_8_2023_9_45_3,1u1x4rm6fx3toou,html-keyboard-response,221,423577,0.0-221.0,grits,gravy,grits,,,,5,,,,,,1,True,True,0.999999922215502,5,Correct,999.0,999.0
264,3865,3567.39999999991,<h1>coyote</h1><br><br><br> Please press space as soon as you recall the target.,32,22,1,CuePresentation,True,True,2,,,True,12_8_2023_9_45_3,1u1x4rm6fx3toou,html-keyboard-response,489,908802,0.0-489.0,cobra,coyote,cobra,,,,21,,,,,,1,False,True,0.579578025639824,3,Correct,999.0,999.0
265,3867,768.800000000047,<h1>violin</h1><br><br><br> Please press space as soon as you recall the target.,32,22,2,CuePresentation,True,True,2,,,True,12_8_2023_9_45_3,1u1x4rm6fx3toou,html-keyboard-response,493,913467,0.0-493.0,cello,violin,cello,,,,5,,,,,,1,True,True,0.808485246694099,5,Correct,999.0,999.0
266,3869,6823.0,<h1>sand</h1><br><br><br> Please press space as soon as you recall the target.,32,22,3,CuePresentation,True,True,2,,,True,12_8_2023_9_45_3,1u1x4rm6fx3toou,html-keyboard-response,497,923851,0.0-497.0,puddle,sand,puddle,,,,4,,,,,,1,True,True,0.676405431577326,4,Correct,999.0,999.0
267,3871,1725.79999999981,<h1>chisel</h1><br><br><br> Please press space as soon as you recall the target.,32,22,4,CuePresentation,True,True,2,,,True,12_8_2023_9_45_3,1u1x4rm6fx3toou,html-keyboard-response,501,929439,0.0-501.0,spool,chisel,spool,,,,9,,,,,,1,True,True,0.561989970663317,3,Correct,999.0,999.0
268,3873,3509.19999999995,<h1>alpaca</h1><br><br><br> Please press space as soon as you recall the target.,32,22,5,CuePresentation,True,True,2,,,True,12_8_2023_9_45_3,1u1x4rm6fx3toou,html-keyboard-response,505,936683,0.0-505.0,yarn,alpaca,yarn,,,,3,,,,,,1,False,True,0.730008656413105,4,Correct,999.0,999.0
269,3875,13237.2,<h1>wire</h1><br><br><br> Please press space as soon as you recall the target.,32,22,6,CuePresentation,True,True,2,,,True,12_8_2023_9_45_3,1u1x4rm6fx3toou,html-keyboard-response,509,953760,0.0-509.0,tape,wire,tape,,,,15,,,,,,1,False,True,0.501096990479819,3,Correct,999.0,999.0
270,3877,7501.90000000014,<h1>desk</h1><br><br><br> Please press space as soon as you recall the target.,32,22,7,CuePresentation,True,True,2,,,True,12_8_2023_9_45_3,1u1x4rm6fx3toou,html-keyboard-response,513,964718,0.0-513.0,toilet,desk,toilet,,,,13,,,,,,1,False,True,0.427165723387472,3,Correct,999.0,999.0
271,3879,7557.69999999995,<h1>watch</h1><br><br><br> Please press space as soon as you recall the target.,32,22,8,CuePresentation,True,True,2,,,True,12_8_2023_9_45_3,1u1x4rm6fx3toou,html-keyboard-response,517,977782,0.0-517.0,sponge,watch,sponge,,,,10,,,,,,1,False,True,0.17659200800734,1,Correct,999.0,999.0
272,3881,13369.2,<h1>domino</h1><br><br><br> Please press space as soon as you recall the target.,32,22,9,CuePresentation,False,True,2,,,True,12_8_2023_9_45_3,1u1x4rm6fx3toou,html-keyboard-response,521,994467,0.0-521.0,0,domino,statue,,,,2,,,,,,0,True,True,0.110843714578772,1,Omission,999.0,999.0
273,3883,1949.80000000005,<h1>roll</h1><br><br><br> Please press space as soon as you recall the target.,32,22,10,CuePresentation,True,True,2,,,True,12_8_2023_9_45_3,1u1x4rm6fx3toou,html-keyboard-response,525,999555,0.0-525.0,leek,roll,leek,,,,7,,,,,,1,True,True,0.228290377679196,2,Correct,999.0,999.0
274,4041,8057.20000000019,<h1>frame</h1><br><br><br> Please press space as soon as you recall the target.,32,32,1,CuePresentation,True,True,3,,,True,12_8_2023_9_45_3,1u1x4rm6fx3toou,html-keyboard-response,873,1661488,0.0-873.0,mast,frame,mast,,,,21,,,,,,1,False,True,0.455237418240569,3,Correct,999.0,999.0
275,4043,1773.30000000028,<h1>fondue</h1><br><br><br> Please press space as soon as you recall the target.,32,32,2,CuePresentation,True,True,3,,,True,12_8_2023_9_45_3,1u1x4rm6fx3toou,html-keyboard-response,877,1666993,0.0-877.0,sauce,fondue,sauce,,,,9,,,,,,1,True,True,0.600478527185145,4,Correct,999.0,999.0
276,4045,12018.7999999998,<h1>sheet</h1><br><br><br> Please press space as soon as you recall the target.,32,32,3,CuePresentation,True,True,3,,,True,12_8_2023_9_45_3,1u1x4rm6fx3toou,html-keyboard-response,881,1682732,0.0-881.0,suit,sheet,suit,,,,29,,,,,,1,False,True,0.153411380957624,1,Correct,999.0,999.0
277,4047,4827.0,<h1>bird</h1><br><br><br> Please press space as soon as you recall the target.,32,32,4,CuePresentation,True,True,3,,,True,12_8_2023_9_45_3,1u1x4rm6fx3toou,html-keyboard-response,885,1691305,0.0-885.0,crow,bird,crow,,,,12,,,,,,1,False,True,0.999999881451747,5,Correct,999.0,999.0
278,4049,1594.60000000009,<h1>teabag</h1><br><br><br> Please press space as soon as you recall the target.,32,32,5,CuePresentation,True,True,3,,,True,12_8_2023_9_45_3,1u1x4rm6fx3toou,html-keyboard-response,889,1696400,0.0-889.0,coffee,teabag,coffee,,,,4,,,,,,1,True,True,0.806588166583034,5,Correct,999.0,999.0
279,4051,22130.1000000001,<h1>melon</h1><br><br><br> Please press space as soon as you recall the target.,32,32,6,CuePresentation,True,True,3,,,True,12_8_2023_9_45_3,1u1x4rm6fx3toou,html-keyboard-response,893,1721886,0.0-893.0,radish,melon,radish,,,,5,,,,,,1,True,True,0.568227410855373,3,Correct,999.0,999.0
280,4053,21778.0,<h1>lime</h1><br><br><br> Please press space as soon as you recall the target.,32,32,7,CuePresentation,False,True,3,,,True,12_8_2023_9_45_3,1u1x4rm6fx3toou,html-keyboard-response,897,1749424,0.0-897.0,0,lime,hanger,,,,7,,,,,,0,True,True,0.177170693013488,1,Omission,999.0,999.0
281,4055,5194.80000000028,<h1>prism</h1><br><br><br> Please press space as soon as you recall the target.,32,32,8,CuePresentation,True,True,3,,,True,12_8_2023_9_45_3,1u1x4rm6fx3toou,html-keyboard-response,901,1757577,0.0-901.0,ring,prism,ring,,,,2,,,,,,1,True,True,0.359066430514316,2,Correct,999.0,999.0
282,4057,15678.6000000001,<h1>lamp</h1><br><br><br> Please press space as soon as you recall the target.,32,32,9,CuePresentation,True,True,3,,,True,12_8_2023_9_45_3,1u1x4rm6fx3toou,html-keyboard-response,905,1776953,0.0-905.0,candle,lamp,candle,,,,8,,,,,,1,False,True,0.698749663319853,4,Correct,999.0,999.0
283,4059,4170.10000000009,<h1>pipe</h1><br><br><br> Please press space as soon as you recall the target.,32,32,10,CuePresentation,True,True,3,,,True,12_8_2023_9_45_3,1u1x4rm6fx3toou,html-keyboard-response,909,1784871,0.0-909.0,paper,pipe,paper,,,,20,,,,,,1,False,True,0.258097566940599,2,Correct,999.0,999.0
284,4127,1007.0,<h1>camel</h1><br><br><br> Please press space as soon as you recall the target.,32,2,1,CuePresentation,True,True,4,,,True,12_8_2023_9_45_3,1u1x4rm6fx3toou,html-keyboard-response,1017,1947749,0.0-1017.0,crutch,camel,crutch,,,,2,,,,,,1,True,True,0.366853562408624,2,Correct,999.0,999.0
285,4129,895.800000000279,<h1>mouth</h1><br><br><br> Please press space as soon as you recall the target.,32,2,2,CuePresentation,True,True,4,,,True,12_8_2023_9_45_3,1u1x4rm6fx3toou,html-keyboard-response,1021,1952649,0.0-1021.0,nose,mouth,nose,,,,1,,,,,,1,False,True,0.661824468395778,4,Correct,999.0,999.0
286,4222,5484.0,<h1>shirt</h1><br><br><br> Please press space as soon as you recall the target.,32,10,1,CuePresentation,True,True,1,,,True,11_8_2023_10_47_40,1w6aj55jwc871p3,html-keyboard-response,169,336982,0.0-169.0,jersey,shirt,jersey,,,,10,,,,,,1,False,False,0.649010826232407,4,Correct,999.0,999.0
287,4224,10953.9999999999,<h1>quiche</h1><br><br><br> Please press space as soon as you recall the target.,32,10,2,CuePresentation,True,True,1,,,True,11_8_2023_10_47_40,1w6aj55jwc871p3,html-keyboard-response,173,353529,0.0-173.0,pasta,quiche,pasta,,,,3,,,,,,1,False,False,1.00000006075905,5,Correct,999.0,999.0
288,4226,3506.99999999994,<h1>hummus</h1><br><br><br> Please press space as soon as you recall the target.,32,10,3,CuePresentation,True,True,1,,,True,11_8_2023_10_47_40,1w6aj55jwc871p3,html-keyboard-response,177,361558,0.0-177.0,slicer,hummus,slicer,,,,1,,,,,,1,False,False,0.500551068441678,3,Correct,999.0,999.0
289,4228,4570.0,<h1>dress</h1><br><br><br> Please press space as soon as you recall the target.,32,10,4,CuePresentation,True,True,1,,,True,11_8_2023_10_47_40,1w6aj55jwc871p3,html-keyboard-response,181,370643,0.0-181.0,radio,dress,radio,,,,5,,,,,,1,True,False,0.003992160614718,1,Correct,999.0,999.0
290,4230,3258.0,<h1>otter</h1><br><br><br> Please press space as soon as you recall the target.,32,10,5,CuePresentation,False,True,1,,,True,11_8_2023_10_47_40,1w6aj55jwc871p3,html-keyboard-response,185,378606,0.0-185.0,iquana,otter,iguana,,,,2,,,,,,0,True,False,0.866536373711664,5,Misspelled Intrusion,999.0,999.0
291,4232,4846.0,<h1>possum</h1><br><br><br> Please press space as soon as you recall the target.,32,10,6,CuePresentation,True,True,1,,,True,11_8_2023_10_47_40,1w6aj55jwc871p3,html-keyboard-response,189,388808,0.0-189.0,slime,possum,slime,,,,8,,,,,,1,False,False,0.299240600347622,2,Correct,999.0,999.0
292,4234,5746.0,<h1>leek</h1><br><br><br> Please press space as soon as you recall the target.,32,10,7,CuePresentation,True,True,1,,,True,11_8_2023_10_47_40,1w6aj55jwc871p3,html-keyboard-response,193,398831,0.0-193.0,roll,leek,roll,,,,7,,,,,,1,True,False,0.228290377679196,2,Correct,999.0,999.0
293,4236,3728.00000000006,<h1>domino</h1><br><br><br> Please press space as soon as you recall the target.,32,10,8,CuePresentation,True,True,1,,,True,11_8_2023_10_47_40,1w6aj55jwc871p3,html-keyboard-response,197,406987,0.0-197.0,statue,domino,statue,,,,6,,,,,,1,False,False,0.110843714578772,1,Correct,999.0,999.0
294,4238,8134.0,<h1>parrot</h1><br><br><br> Please press space as soon as you recall the target.,32,10,9,CuePresentation,False,True,1,,,True,11_8_2023_10_47_40,1w6aj55jwc871p3,html-keyboard-response,201,419874,0.0-201.0,0,parrot,turtle,,,,9,,,,,,0,True,False,0.65206421477411,4,Omission,999.0,999.0
295,4240,3704.0,<h1>teepee</h1><br><br><br> Please press space as soon as you recall the target.,32,10,10,CuePresentation,True,True,1,,,True,11_8_2023_10_47_40,1w6aj55jwc871p3,html-keyboard-response,205,426832,0.0-205.0,stove,teepee,stove,,,,4,,,,,,1,True,False,0.441684669598265,3,Correct,999.0,999.0
296,4326,4564.00000000012,<h1>cereal</h1><br><br><br> Please press space as soon as you recall the target.,32,8,1,CuePresentation,True,True,2,,,True,11_8_2023_10_47_40,1w6aj55jwc871p3,html-keyboard-response,361,738963,0.0-361.0,cookie,cereal,cookie,,,,8,,,,,,1,False,False,0.432807624318706,3,Correct,999.0,999.0
297,4328,6729.99999999988,<h1>chick</h1><br><br><br> Please press space as soon as you recall the target.,32,8,2,CuePresentation,True,True,2,,,True,11_8_2023_10_47_40,1w6aj55jwc871p3,html-keyboard-response,365,749770,0.0-365.0,girl,chick,girl,,,,4,,,,,,1,True,False,0.624724496623479,4,Correct,999.0,999.0
298,4330,3017.0,<h1>eraser</h1><br><br><br> Please press space as soon as you recall the target.,32,8,3,CuePresentation,True,True,2,,,True,11_8_2023_10_47_40,1w6aj55jwc871p3,html-keyboard-response,369,757395,0.0-369.0,mirror,eraser,mirror,,,,3,,,,,,1,False,False,0.240063744300811,2,Correct,999.0,999.0
299,4332,3804.0,<h1>locket</h1><br><br><br> Please press space as soon as you recall the target.,32,8,4,CuePresentation,True,True,2,,,True,11_8_2023_10_47_40,1w6aj55jwc871p3,html-keyboard-response,373,765225,0.0-373.0,kimono,locket,kimono,,,,2,,,,,,1,True,False,0.0103429243642662,1,Correct,999.0,999.0
300,4334,5751.0,<h1>coal</h1><br><br><br> Please press space as soon as you recall the target.,32,8,5,CuePresentation,True,True,2,,,True,11_8_2023_10_47_40,1w6aj55jwc871p3,html-keyboard-response,377,775947,0.0-377.0,globe,coal,globe,,,,1,,,,,,1,False,False,0.0521687423182363,1,Correct,999.0,999.0
301,4336,3510.0,<h1>towel</h1><br><br><br> Please press space as soon as you recall the target.,32,8,6,CuePresentation,True,True,2,,,True,11_8_2023_10_47_40,1w6aj55jwc871p3,html-keyboard-response,381,784065,0.0-381.0,bolt,towel,bolt,,,,7,,,,,,1,True,False,0.275631401009094,2,Correct,999.0,999.0
302,4338,4646.0,<h1>violin</h1><br><br><br> Please press space as soon as you recall the target.,32,8,7,CuePresentation,True,True,2,,,True,11_8_2023_10_47_40,1w6aj55jwc871p3,html-keyboard-response,385,792389,0.0-385.0,cello,violin,cello,,,,6,,,,,,1,False,False,0.808485246694099,5,Correct,999.0,999.0
303,4340,2441.0,<h1>beetle</h1><br><br><br> Please press space as soon as you recall the target.,32,8,8,CuePresentation,False,True,2,,,True,11_8_2023_10_47_40,1w6aj55jwc871p3,html-keyboard-response,389,798751,0.0-389.0,eraser,beetle,kitten,,,,5,,,,,,0,True,False,0.316639554830722,2,Intrusion,0.012921259161969347,-0.00450636104719022
304,4492,3158.0,<h1>crutch</h1><br><br><br> Please press space as soon as you recall the target.,32,30,1,CuePresentation,True,True,3,,,True,11_8_2023_10_47_40,1w6aj55jwc871p3,html-keyboard-response,721,1451101,0.0-721.0,camel,crutch,camel,,,,28,,,,,,1,False,False,0.366853562408624,2,Correct,999.0,999.0
305,4494,5228.0,<h1>skirt</h1><br><br><br> Please press space as soon as you recall the target.,32,30,2,CuePresentation,True,True,3,,,True,11_8_2023_10_47_40,1w6aj55jwc871p3,html-keyboard-response,725,1460779,0.0-725.0,blouse,skirt,blouse,,,,9,,,,,,1,True,False,0.999999967678032,5,Correct,999.0,999.0
306,4496,5525.00000000023,<h1>flower</h1><br><br><br> Please press space as soon as you recall the target.,32,30,3,CuePresentation,True,True,3,,,True,11_8_2023_10_47_40,1w6aj55jwc871p3,html-keyboard-response,729,1470997,0.0-729.0,orchid,flower,orchid,,,,27,,,,,,1,False,False,1.0000000758957,5,Correct,999.0,999.0
307,4498,1941.0,<h1>cart</h1><br><br><br> Please press space as soon as you recall the target.,32,30,4,CuePresentation,True,True,3,,,True,11_8_2023_10_47_40,1w6aj55jwc871p3,html-keyboard-response,733,1477463,0.0-733.0,buggy,cart,buggy,,,,4,,,,,,1,True,False,0.428620405334395,3,Correct,999.0,999.0
308,4500,2434.0,<h1>dagger</h1><br><br><br> Please press space as soon as you recall the target.,32,30,5,CuePresentation,True,True,3,,,True,11_8_2023_10_47_40,1w6aj55jwc871p3,html-keyboard-response,737,1483857,0.0-737.0,ankle,dagger,ankle,,,,5,,,,,,1,True,False,0.180840465787966,1,Correct,999.0,999.0
309,4502,3327.0,<h1>radish</h1><br><br><br> Please press space as soon as you recall the target.,32,30,6,CuePresentation,False,True,3,,,True,11_8_2023_10_47_40,1w6aj55jwc871p3,html-keyboard-response,741,1491494,0.0-741.0,0,radish,melon,,,,11,,,,,,0,False,False,0.568227410855373,3,Omission,999.0,999.0
310,4504,4226.0,<h1>fish</h1><br><br><br> Please press space as soon as you recall the target.,32,30,7,CuePresentation,True,True,3,,,True,11_8_2023_10_47_40,1w6aj55jwc871p3,html-keyboard-response,745,1498672,0.0-745.0,squid,fish,squid,,,,7,,,,,,1,True,False,0.752440606490791,4,Correct,999.0,999.0
311,4506,3807.0,<h1>leech</h1><br><br><br> Please press space as soon as you recall the target.,32,30,8,CuePresentation,False,True,3,,,True,11_8_2023_10_47_40,1w6aj55jwc871p3,html-keyboard-response,749,1506166,0.0-749.0,0,leech,worm,,,,14,,,,,,0,False,False,0.809647988325674,5,Omission,999.0,999.0
312,4508,7994.00000000023,<h1>cape</h1><br><br><br> Please press space as soon as you recall the target.,32,30,9,CuePresentation,False,True,3,,,True,11_8_2023_10_47_40,1w6aj55jwc871p3,html-keyboard-response,753,1517767,0.0-753.0,0,cape,chime,,,,2,,,,,,0,True,False,0.257361994057368,2,Omission,999.0,999.0
313,4510,7037.0,<h1>puck</h1><br><br><br> Please press space as soon as you recall the target.,32,30,10,CuePresentation,True,True,3,,,True,11_8_2023_10_47_40,1w6aj55jwc871p3,html-keyboard-response,757,1528185,0.0-757.0,beard,puck,beard,,,,24,,,,,,1,False,False,0.158674531855931,1,Correct,999.0,999.0
314,4632,4742.0,<h1>yarn</h1><br><br><br> Please press space as soon as you recall the target.,32,20,1,CuePresentation,True,True,4,,,True,11_8_2023_10_47_40,1w6aj55jwc871p3,html-keyboard-response,1009,2010207,0.0-1009.0,alpaca,yarn,alpaca,,,,16,,,,,,1,False,False,0.730008656413105,4,Correct,999.0,999.0
315,4634,3649.0,<h1>paint</h1><br><br><br> Please press space as soon as you recall the target.,32,20,2,CuePresentation,False,True,4,,,True,11_8_2023_10_47_40,1w6aj55jwc871p3,html-keyboard-response,1013,2018526,0.0-1013.0,brush,paint,makeup,,,,9,,,,,,0,True,False,0.505935810169567,3,Intrusion,0.5877828491424016,0.505299293079918
316,4636,1932.0,<h1>fondue</h1><br><br><br> Please press space as soon as you recall the target.,32,20,3,CuePresentation,True,True,4,,,True,11_8_2023_10_47_40,1w6aj55jwc871p3,html-keyboard-response,1017,2024655,0.0-1017.0,sauce,fondue,sauce,,,,5,,,,,,1,True,False,0.600478527185145,4,Correct,999.0,999.0
317,4638,1599.99999999977,<h1>kayak</h1><br><br><br> Please press space as soon as you recall the target.,32,20,4,CuePresentation,True,True,4,,,True,11_8_2023_10_47_40,1w6aj55jwc871p3,html-keyboard-response,1021,2030262,0.0-1021.0,block,kayak,block,,,,17,,,,,,1,False,False,0.234036216185256,2,Correct,999.0,999.0
318,4640,3565.0,<h1>heater</h1><br><br><br> Please press space as soon as you recall the target.,32,20,5,CuePresentation,False,True,4,,,True,11_8_2023_10_47_40,1w6aj55jwc871p3,html-keyboard-response,1025,2038913,0.0-1025.0,0,heater,tripod,,,,3,,,,,,0,False,False,0.426391146408292,3,Omission,999.0,999.0
