,X,rt,stimulus,key_press,ListLength,Trial_index,Phase,correct,ExperimentalPhase,Block,word1,word2,save,date,subject_id,trial_type,trial_index,time_elapsed,internal_node_id,response,cue,target,SequenceLength,sequence,letterSeen,queriedPosition,Stimulus_type,TrialType,timeMs,timeMin,score,correct_01,validTrials,validID,W2VWordPairsSim,SimBins,Error_type,W2VReponseCueSim,W2VReponseTargetSim,averageSimToCue,averageSimToTarget
0,150,4226.39999985695,<h1>sheath</h1><br><br><br> Please press space as soon as you recall the target.,32,30,1,CuePresentation,False,True,1,,,True,29_8_2023_11_35_35,0assan0nym4bqrq,html-keyboard-response,329,643698,0.0-329.0,0,sheath,knife,,,,5,,,,,,0,True,False,0.735375776651981,4,Omission,999.0,999.0,0.26839731475804796,0.23172459787231778
1,152,10179.5999999046,<h1>earwig</h1><br><br><br> Please press space as soon as you recall the target.,32,30,2,CuePresentation,False,True,1,,,True,29_8_2023_11_35_35,0assan0nym4bqrq,html-keyboard-response,333,657779,0.0-333.0,0,earwig,walnut,,,,7,,,,,,0,True,False,0.242173377562161,2,Omission,999.0,999.0,0.14809054260714968,0.21413873477339082
2,154,12688.5999999046,<h1>lamp</h1><br><br><br> Please press space as soon as you recall the target.,32,30,3,CuePresentation,False,True,1,,,True,29_8_2023_11_35_35,0assan0nym4bqrq,html-keyboard-response,337,674193,0.0-337.0,head,lamp,candle,,,,22,,,,,,0,False,False,0.698749663319853,4,Intrusion,0.2202513467975047,0.15972137935822617,0.22328042950507182,0.25375398725723197
3,156,4736.5,<h1>sheet</h1><br><br><br> Please press space as soon as you recall the target.,32,30,4,CuePresentation,False,True,1,,,True,29_8_2023_11_35_35,0assan0nym4bqrq,html-keyboard-response,341,682545,0.0-341.0,0,sheet,suit,,,,4,,,,,,0,True,False,0.153411380957624,1,Omission,999.0,999.0,0.17770283992594396,0.17420597165496007
4,158,8928.70000004768,<h1>bumper</h1><br><br><br> Please press space as soon as you recall the target.,32,30,5,CuePresentation,False,True,1,,,True,29_8_2023_11_35_35,0assan0nym4bqrq,html-keyboard-response,345,695160,0.0-345.0,car,bumper,tank,,,,17,,,,,,0,False,False,0.337314081016891,2,Intrusion,0.5452532939087595,0.34006133072333394,0.20607245542681213,0.16366068833276273
5,160,11717.4000000954,<h1>moth</h1><br><br><br> Please press space as soon as you recall the target.,32,30,6,CuePresentation,False,True,1,,,True,29_8_2023_11_35_35,0assan0nym4bqrq,html-keyboard-response,349,710716,0.0-349.0,0,moth,fungus,,,,9,,,,,,0,True,False,0.421186232744235,3,Omission,999.0,999.0,0.16159187394124067,0.18728818065014674
6,162,10255.3000001907,<h1>girl</h1><br><br><br> Please press space as soon as you recall the target.,32,30,7,CuePresentation,False,True,1,,,True,29_8_2023_11_35_35,0assan0nym4bqrq,html-keyboard-response,353,723826,0.0-353.0,0,girl,chick,,,,18,,,,,,0,False,False,0.624724496623479,4,Omission,999.0,999.0,0.16215048904843657,0.22875811271904176
7,164,6208.89999985695,<h1>tape</h1><br><br><br> Please press space as soon as you recall the target.,32,30,8,CuePresentation,False,True,1,,,True,29_8_2023_11_35_35,0assan0nym4bqrq,html-keyboard-response,357,732984,0.0-357.0,earwig,tape,wire,,,,27,,,,,,0,False,False,0.501096990479819,3,Intrusion,0.056054631305640805,0.09515731687362965,0.18072026412219838,0.2286892179617451
8,166,8186.20000004768,<h1>teabag</h1><br><br><br> Please press space as soon as you recall the target.,32,30,9,CuePresentation,False,True,1,,,True,29_8_2023_11_35_35,0assan0nym4bqrq,html-keyboard-response,361,745676,0.0-361.0,0,teabag,coffee,,,,2,,,,,,0,True,False,0.806588166583034,5,Omission,999.0,999.0,0.19929622089777368,0.21507288602254077
9,168,2250.0,<h1>knee</h1><br><br><br> Please press space as soon as you recall the target.,32,30,10,CuePresentation,True,True,1,,,True,29_8_2023_11_35_35,0assan0nym4bqrq,html-keyboard-response,365,750911,0.0-365.0,wrist,knee,wrist,,,,6,,,,,,1,False,False,0.669356171840164,4,Correct,999.0,999.0,0.12564742406865098,0.19218423908375226
10,260,3266.29999995232,<h1>parrot</h1><br><br><br> Please press space as soon as you recall the target.,32,10,1,CuePresentation,True,True,2,,,True,29_8_2023_11_35_35,0assan0nym4bqrq,html-keyboard-response,537,1073987,0.0-537.0,turtle,parrot,turtle,,,,8,,,,,,1,False,False,0.65206421477411,4,Correct,999.0,999.0,0.2619045999960425,0.2302299194748968
11,262,2069.79999995232,<h1>thumb</h1><br><br><br> Please press space as soon as you recall the target.,32,10,2,CuePresentation,True,True,2,,,True,29_8_2023_11_35_35,0assan0nym4bqrq,html-keyboard-response,541,1082692,0.0-541.0,anklet,thumb,anklet,,,,6,,,,,,1,False,False,0.47748479244258,3,Correct,999.0,999.0,0.24144026959534082,0.10600126919454698
12,264,2798.79999995232,<h1>prune</h1><br><br><br> Please press space as soon as you recall the target.,32,10,3,CuePresentation,True,True,2,,,True,29_8_2023_11_35_35,0assan0nym4bqrq,html-keyboard-response,545,1088947,0.0-545.0,thorn,prune,thorn,,,,3,,,,,,1,False,False,0.999999978936332,5,Correct,999.0,999.0,0.3303261291247245,0.2931220263574129
13,266,2188.09999990463,<h1>eraser</h1><br><br><br> Please press space as soon as you recall the target.,32,10,4,CuePresentation,True,True,2,,,True,29_8_2023_11_35_35,0assan0nym4bqrq,html-keyboard-response,549,1094741,0.0-549.0,mirror,eraser,mirror,,,,4,,,,,,1,True,False,0.240063744300811,2,Correct,999.0,999.0,0.05104926415318476,0.16532499066065964
14,268,2054.70000004768,<h1>dough</h1><br><br><br> Please press space as soon as you recall the target.,32,10,5,CuePresentation,True,True,2,,,True,29_8_2023_11_35_35,0assan0nym4bqrq,html-keyboard-response,553,1102076,0.0-553.0,tomato,dough,tomato,,,,7,,,,,,1,True,False,0.445283558369461,3,Correct,999.0,999.0,0.25505249433510374,0.23840009749568564
15,270,8041.0,<h1>binder</h1><br><br><br> Please press space as soon as you recall the target.,32,10,6,CuePresentation,False,True,2,,,True,29_8_2023_11_35_35,0assan0nym4bqrq,html-keyboard-response,557,1114846,0.0-557.0,0,binder,weed,,,,1,,,,,,0,False,False,0.193818930259629,1,Omission,999.0,999.0,0.21047304148529078,0.2606910360006443
16,272,7525.19999980927,<h1>puddle</h1><br><br><br> Please press space as soon as you recall the target.,32,10,7,CuePresentation,True,True,2,,,True,29_8_2023_11_35_35,0assan0nym4bqrq,html-keyboard-response,561,1125660,0.0-561.0,sand,puddle,sand,,,,5,,,,,,1,True,False,0.676405431577326,4,Correct,999.0,999.0,0.2572678663724463,0.2499416267847528
17,274,7420.20000004768,<h1>flower</h1><br><br><br> Please press space as soon as you recall the target.,32,10,8,CuePresentation,False,True,2,,,True,29_8_2023_11_35_35,0assan0nym4bqrq,html-keyboard-response,565,1136276,0.0-565.0,petal,flower,orchid,,,,9,,,,,,0,True,False,1.0000000758957,5,Intrusion,0.7235823324891205,0.7235823324891205,0.32312588743691845,0.28552176585587524
18,276,7162.89999985695,<h1>leash</h1><br><br><br> Please press space as soon as you recall the target.,32,10,9,CuePresentation,False,True,2,,,True,29_8_2023_11_35_35,0assan0nym4bqrq,html-keyboard-response,569,1146751,0.0-569.0,0,leash,drink,,,,2,,,,,,0,True,False,0.108463556475143,1,Omission,999.0,999.0,0.15151500812626534,0.18531184136958742
19,278,4475.29999995232,<h1>skunk</h1><br><br><br> Please press space as soon as you recall the target.,32,10,10,CuePresentation,False,True,2,,,True,29_8_2023_11_35_35,0assan0nym4bqrq,html-keyboard-response,573,1153982,0.0-573.0,0,skunk,rope,,,,10,,,,,,0,False,False,0.323396853922166,2,Omission,999.0,999.0,0.28453569811382107,0.2659601814156267
20,364,2185.20000004768,<h1>iguana</h1><br><br><br> Please press space as soon as you recall the target.,32,8,1,CuePresentation,True,True,3,,,True,29_8_2023_11_35_35,0assan0nym4bqrq,html-keyboard-response,729,1422574,0.0-729.0,otter,iguana,otter,,,,8,,,,,,1,False,False,0.866536373711664,5,Correct,999.0,999.0,0.2216966398231501,0.17471923093288105
21,366,1943.0,<h1>camper</h1><br><br><br> Please press space as soon as you recall the target.,32,8,2,CuePresentation,True,True,3,,,True,29_8_2023_11_35_35,0assan0nym4bqrq,html-keyboard-response,733,1427777,0.0-733.0,closet,camper,closet,,,,4,,,,,,1,True,False,0.336314072358579,2,Correct,999.0,999.0,0.18392146489168948,0.2468785052332267
22,368,1492.59999990463,<h1>fudge</h1><br><br><br> Please press space as soon as you recall the target.,32,8,3,CuePresentation,True,True,3,,,True,29_8_2023_11_35_35,0assan0nym4bqrq,html-keyboard-response,737,1433101,0.0-737.0,rifle,fudge,rifle,,,,7,,,,,,1,True,False,0.0253189744766434,1,Correct,999.0,999.0,0.11678539192327411,0.18012553177195284
23,370,3908.40000009537,<h1>boot</h1><br><br><br> Please press space as soon as you recall the target.,32,8,4,CuePresentation,True,True,3,,,True,29_8_2023_11_35_35,0assan0nym4bqrq,html-keyboard-response,741,1440404,0.0-741.0,moss,boot,moss,,,,1,,,,,,1,False,False,0.223088852677818,2,Correct,999.0,999.0,0.2431206124360879,0.22002767756492028
24,372,1814.40000009537,<h1>throne</h1><br><br><br> Please press space as soon as you recall the target.,32,8,5,CuePresentation,True,True,3,,,True,29_8_2023_11_35_35,0assan0nym4bqrq,html-keyboard-response,745,1445841,0.0-745.0,donket,throne,donkey,,,,6,,,,,,1,False,False,0.108564855475739,1,Correct,999.0,999.0,0.09118172435626185,0.19808429154658552
25,374,3346.5,<h1>kimono</h1><br><br><br> Please press space as soon as you recall the target.,32,8,6,CuePresentation,True,True,3,,,True,29_8_2023_11_35_35,0assan0nym4bqrq,html-keyboard-response,749,1452598,0.0-749.0,locket,kimono,locket,,,,5,,,,,,1,True,False,0.0103429243642662,1,Correct,999.0,999.0,0.09034946027183198,0.26003195557895414
26,376,1572.80000019073,<h1>drain</h1><br><br><br> Please press space as soon as you recall the target.,32,8,7,CuePresentation,True,True,3,,,True,29_8_2023_11_35_35,0assan0nym4bqrq,html-keyboard-response,753,1457542,0.0-753.0,sink,drain,sink,,,,3,,,,,,1,False,False,0.631240283731934,4,Correct,999.0,999.0,0.23435429290926227,0.2352504350904808
27,378,5564.79999995232,<h1>spool</h1><br><br><br> Please press space as soon as you recall the target.,32,8,8,CuePresentation,False,True,3,,,True,29_8_2023_11_35_35,0assan0nym4bqrq,html-keyboard-response,757,1466240,0.0-757.0,0,spool,chisel,,,,2,,,,,,0,True,False,0.561989970663317,3,Omission,999.0,999.0,0.238518886800806,0.2331417854521187
28,500,10944.6999998093,<h1>raft</h1><br><br><br> Please press space as soon as you recall the target.,32,20,1,CuePresentation,False,True,4,,,True,29_8_2023_11_35_35,0assan0nym4bqrq,html-keyboard-response,1009,1933390,0.0-1009.0,spool,raft,shorts,,,,11,,,,,,0,False,False,0.213414433174442,2,Intrusion,0.354477196328855,0.23299614859420345,0.2046968959625933,0.21798202295701746
29,502,3061.79999995232,<h1>quiche</h1><br><br><br> Please press space as soon as you recall the target.,32,20,2,CuePresentation,True,True,4,,,True,29_8_2023_11_35_35,0assan0nym4bqrq,html-keyboard-response,1013,1940578,0.0-1013.0,pasta,quiche,pasta,,,,18,,,,,,1,False,False,1.00000006075905,5,Correct,999.0,999.0,0.21982986666723534,0.19929907208587178
30,504,15140.2999999523,<h1>slime</h1><br><br><br> Please press space as soon as you recall the target.,32,20,3,CuePresentation,False,True,4,,,True,29_8_2023_11_35_35,0assan0nym4bqrq,html-keyboard-response,1017,1959121,0.0-1017.0,0,slime,possum,,,,4,,,,,,0,True,False,0.299240600347622,2,Omission,999.0,999.0,0.26444373913150193,0.2889460646942574
31,506,1643.09999990463,<h1>flag</h1><br><br><br> Please press space as soon as you recall the target.,32,20,4,CuePresentation,True,True,4,,,True,29_8_2023_11_35_35,0assan0nym4bqrq,html-keyboard-response,1021,1964001,0.0-1021.0,banner,flag,banner,,,,3,,,,,,1,False,False,0.616673037290324,4,Correct,999.0,999.0,0.18162205428506162,0.13678419022708468
32,508,2286.70000004768,<h1>horse</h1><br><br><br> Please press space as soon as you recall the target.,32,20,5,CuePresentation,True,True,4,,,True,29_8_2023_11_35_35,0assan0nym4bqrq,html-keyboard-response,1025,1969363,0.0-1025.0,pony,horse,pony,,,,10,,,,,,1,False,False,0.653305820007919,4,Correct,999.0,999.0,0.2804064948737315,0.2203696803217822
33,510,4623.59999990463,<h1>bonsai</h1><br><br><br> Please press space as soon as you recall the target.,32,20,6,CuePresentation,False,True,4,,,True,29_8_2023_11_35_35,0assan0nym4bqrq,html-keyboard-response,1029,1977058,0.0-1029.0,petal,bonsai,tulip,,,,1,,,,,,0,False,False,0.549562972213874,3,Intrusion,0.4924970792063717,0.6693102017279225,0.18017459319670467,0.19306251672799699
34,512,5700.29999995232,<h1>floss</h1><br><br><br> Please press space as soon as you recall the target.,32,20,7,CuePresentation,False,True,4,,,True,29_8_2023_11_35_35,0assan0nym4bqrq,html-keyboard-response,1033,1985906,0.0-1033.0,0,floss,powder,,,,9,,,,,,0,True,False,0.48735431534364,3,Omission,999.0,999.0,0.28609080694660743,0.22058869117172542
35,514,5283.59999990463,<h1>koala</h1><br><br><br> Please press space as soon as you recall the target.,32,20,8,CuePresentation,True,True,4,,,True,29_8_2023_11_35_35,0assan0nym4bqrq,html-keyboard-response,1037,1994041,0.0-1037.0,snake,koala,snake,,,,2,,,,,,1,True,False,0.674045570966141,4,Correct,999.0,999.0,0.2312397285020716,0.2670667216030284
36,516,1717.5,<h1>visor</h1><br><br><br> Please press space as soon as you recall the target.,32,20,9,CuePresentation,True,True,4,,,True,29_8_2023_11_35_35,0assan0nym4bqrq,html-keyboard-response,1041,1999135,0.0-1041.0,helmet,visor,helmet,,,,7,,,,,,1,True,False,1.0000000639651,5,Correct,999.0,999.0,0.27109372450383806,0.2519119787285417
37,518,2085.70000004768,<h1>blower</h1><br><br><br> Please press space as soon as you recall the target.,32,20,10,CuePresentation,False,True,4,,,True,29_8_2023_11_35_35,0assan0nym4bqrq,html-keyboard-response,1045,2004407,0.0-1045.0,tor,blower,faucet,,,,5,,,,,,0,True,False,0.127666791564387,1,Intrusion,0.00021644351103304498,0.043832392806523235,0.1748707096686055,0.1665110044238128
38,629,5787.90000000596,<h1>sandal</h1><br><br><br> Please press space as soon as you recall the target.,32,16,1,CuePresentation,True,True,1,,,True,11_8_2023_23_32_43,0c8mkfytab041ba,html-keyboard-response,217,379868,0.0-217.0,insole,sandal,insole,,,,1,,,,,,1,False,True,0.854520532339466,5,Correct,999.0,999.0,0.22683764552359179,0.2440748999755174
39,631,1627.30000001192,<h1>eraser</h1><br><br><br> Please press space as soon as you recall the target.,32,16,2,CuePresentation,True,True,1,,,True,11_8_2023_23_32_43,0c8mkfytab041ba,html-keyboard-response,221,384787,0.0-221.0,mirror,eraser,mirror,,,,11,,,,,,1,False,True,0.240063744300811,2,Correct,999.0,999.0,0.08824858426359057,0.2080908980692229
40,633,1631.80000001192,<h1>button</h1><br><br><br> Please press space as soon as you recall the target.,32,16,3,CuePresentation,True,True,1,,,True,11_8_2023_23_32_43,0c8mkfytab041ba,html-keyboard-response,225,390023,0.0-225.0,knob,button,knob,,,,7,,,,,,1,True,True,0.874543616124306,5,Correct,999.0,999.0,0.2467087103094067,0.2639465098006887
41,635,8903.5,<h1>buggy</h1><br><br><br> Please press space as soon as you recall the target.,32,16,4,CuePresentation,False,True,1,,,True,11_8_2023_23_32_43,0c8mkfytab041ba,html-keyboard-response,229,401956,0.0-229.0,kart,buggy,cart,,,,9,,,,,,0,True,True,0.428620405334395,3,Intrusion,0.7996345790893593,0.4125274446699505,0.17512789806490486,0.22340887556233216
42,637,3171.60000002384,<h1>hanger</h1><br><br><br> Please press space as soon as you recall the target.,32,16,5,CuePresentation,True,True,1,,,True,11_8_2023_23_32_43,0c8mkfytab041ba,html-keyboard-response,233,408099,0.0-233.0,lime,hanger,lime,,,,16,,,,,,1,False,True,0.177170693013488,1,Correct,999.0,999.0,0.2198686791033822,0.20883870361420917
43,639,4020.40000000596,<h1>possum</h1><br><br><br> Please press space as soon as you recall the target.,32,16,6,CuePresentation,False,True,1,,,True,11_8_2023_23_32_43,0c8mkfytab041ba,html-keyboard-response,237,415139,0.0-237.0,fungus,possum,slime,,,,5,,,,,,0,True,True,0.299240600347622,2,Intrusion,0.39073356133768394,0.42952986627931994,0.21516593043287865,0.2923728117375912
44,641,991.800000011921,<h1>bacon</h1><br><br><br> Please press space as soon as you recall the target.,32,16,7,CuePresentation,True,True,1,,,True,11_8_2023_23_32_43,0c8mkfytab041ba,html-keyboard-response,241,419638,0.0-241.0,hotdog,bacon,hotdog,,,,4,,,,,,1,True,True,0.654814915149301,4,Correct,999.0,999.0,0.19775751885149112,0.19413105741187786
45,643,2404.10000002384,<h1>kite</h1><br><br><br> Please press space as soon as you recall the target.,32,16,8,CuePresentation,True,True,1,,,True,11_8_2023_23_32_43,0c8mkfytab041ba,html-keyboard-response,245,425222,0.0-245.0,record,kite,record,,,,2,,,,,,1,True,True,0.150266880798289,1,Correct,999.0,999.0,0.21990131444391658,0.048645910886784306
46,645,1860.89999997616,<h1>moth</h1><br><br><br> Please press space as soon as you recall the target.,32,16,9,CuePresentation,True,True,1,,,True,11_8_2023_23_32_43,0c8mkfytab041ba,html-keyboard-response,249,430141,0.0-249.0,fungus,moth,fungus,,,,3,,,,,,1,False,True,0.421186232744235,3,Correct,999.0,999.0,0.13057690657112786,0.18563136657385104
47,647,1300.80000001192,<h1>folder</h1><br><br><br> Please press space as soon as you recall the target.,32,16,10,CuePresentation,True,True,1,,,True,11_8_2023_23_32_43,0c8mkfytab041ba,html-keyboard-response,253,434564,0.0-253.0,file,folder,file,,,,15,,,,,,1,False,True,0.761074923120327,4,Correct,999.0,999.0,0.22777321010731263,0.12659821706891325
48,763,5079.5,<h1>thumb</h1><br><br><br> Please press space as soon as you recall the target.,32,18,1,CuePresentation,False,True,2,,,True,11_8_2023_23_32_43,0c8mkfytab041ba,html-keyboard-response,489,831421,0.0-489.0,0,thumb,anklet,,,,9,,,,,,0,True,True,0.47748479244258,3,Omission,999.0,999.0,0.21354643919166416,0.11911236625234609
49,765,2062.30000001192,<h1>jacket</h1><br><br><br> Please press space as soon as you recall the target.,32,18,2,CuePresentation,True,True,2,,,True,11_8_2023_23_32_43,0c8mkfytab041ba,html-keyboard-response,493,837238,0.0-493.0,blazer,jacket,blazer,,,,15,,,,,,1,False,True,1.00000002728999,5,Correct,999.0,999.0,0.2808112397624823,0.2596586283646144
50,767,4234.19999998808,<h1>tick</h1><br><br><br> Please press space as soon as you recall the target.,32,18,3,CuePresentation,True,True,2,,,True,11_8_2023_23_32_43,0c8mkfytab041ba,html-keyboard-response,497,845784,0.0-497.0,clay,tick,clay,,,,5,,,,,,1,True,True,0.0153055198591734,1,Correct,999.0,999.0,0.1813647649747325,0.20471099958693229
51,769,2051.80000001192,<h1>crow</h1><br><br><br> Please press space as soon as you recall the target.,32,18,4,CuePresentation,True,True,2,,,True,11_8_2023_23_32_43,0c8mkfytab041ba,html-keyboard-response,501,850892,0.0-501.0,bird,crow,bird,,,,1,,,,,,1,False,True,0.999999881451747,5,Correct,999.0,999.0,0.30275205447701486,0.28224476544834626
52,771,888.600000023842,<h1>chick</h1><br><br><br> Please press space as soon as you recall the target.,32,18,5,CuePresentation,True,True,2,,,True,11_8_2023_23_32_43,0c8mkfytab041ba,html-keyboard-response,505,854546,0.0-505.0,girl,chick,girl,,,,4,,,,,,1,True,True,0.624724496623479,4,Correct,999.0,999.0,0.26082368213376944,0.17003619743272239
53,773,1982.69999998808,<h1>kayak</h1><br><br><br> Please press space as soon as you recall the target.,32,18,6,CuePresentation,True,True,2,,,True,11_8_2023_23_32_43,0c8mkfytab041ba,html-keyboard-response,509,859575,0.0-509.0,block,kayak,block,,,,16,,,,,,1,False,True,0.234036216185256,2,Correct,999.0,999.0,0.2230961476499227,0.14966744399146303
54,775,1172.09999999404,<h1>amber</h1><br><br><br> Please press space as soon as you recall the target.,32,18,7,CuePresentation,True,True,2,,,True,11_8_2023_23_32_43,0c8mkfytab041ba,html-keyboard-response,513,863977,0.0-513.0,orange,amber,orange,,,,2,,,,,,1,True,True,0.999999963859867,5,Correct,999.0,999.0,0.2679645509821376,0.24643409766220437
55,777,1869.39999997616,<h1>wand</h1><br><br><br> Please press space as soon as you recall the target.,32,18,8,CuePresentation,True,True,2,,,True,11_8_2023_23_32_43,0c8mkfytab041ba,html-keyboard-response,517,868926,0.0-517.0,money,wand,money,,,,7,,,,,,1,True,True,0.215125963179727,2,Correct,999.0,999.0,0.20239729107453913,0.10400206141216219
56,779,1709.69999998808,<h1>lion</h1><br><br><br> Please press space as soon as you recall the target.,32,18,9,CuePresentation,True,True,2,,,True,11_8_2023_23_32_43,0c8mkfytab041ba,html-keyboard-response,521,873703,0.0-521.0,fossil,lion,fossil,,,,11,,,,,,1,False,True,0.196524623623291,1,Correct,999.0,999.0,0.1904451149905475,0.1141385249120643
57,781,9931.29999998212,<h1>blind</h1><br><br><br> Please press space as soon as you recall the target.,32,18,10,CuePresentation,False,True,2,,,True,11_8_2023_23_32_43,0c8mkfytab041ba,html-keyboard-response,525,886738,0.0-525.0,0,blind,switch,,,,17,,,,,,0,False,True,0.252173754849272,2,Omission,999.0,999.0,0.16720078443874142,0.16025327676789533
58,861,1677.70000001788,<h1>badger</h1><br><br><br> Please press space as soon as you recall the target.,32,6,1,CuePresentation,True,True,3,,,True,11_8_2023_23_32_43,0c8mkfytab041ba,html-keyboard-response,665,1099400,0.0-665.0,acorn,badger,acorn,,,,1,,,,,,1,False,True,0.168680108473489,1,Correct,999.0,999.0,0.20211104111324826,0.30593218881176754
59,863,1516.59999999404,<h1>pony</h1><br><br><br> Please press space as soon as you recall the target.,32,6,2,CuePresentation,True,True,3,,,True,11_8_2023_23_32_43,0c8mkfytab041ba,html-keyboard-response,669,1104299,0.0-669.0,horse,pony,horse,,,,4,,,,,,1,True,True,0.653305820007919,4,Correct,999.0,999.0,0.21520515117534433,0.23183481070650172
60,865,1394.80000001192,<h1>tomato</h1><br><br><br> Please press space as soon as you recall the target.,32,6,3,CuePresentation,True,True,3,,,True,11_8_2023_23_32_43,0c8mkfytab041ba,html-keyboard-response,673,1108792,0.0-673.0,dough,tomato,dough,,,,5,,,,,,1,True,True,0.445283558369461,3,Correct,999.0,999.0,0.22426965560367543,0.23224940637791738
61,867,1823.80000001192,<h1>pulley</h1><br><br><br> Please press space as soon as you recall the target.,32,6,4,CuePresentation,True,True,3,,,True,11_8_2023_23_32_43,0c8mkfytab041ba,html-keyboard-response,677,1113532,0.0-677.0,crank,pulley,crank,,,,3,,,,,,1,False,True,0.999999982961594,5,Correct,999.0,999.0,0.2749327927494213,0.20242607372820406
62,869,1013.89999997616,<h1>pipe</h1><br><br><br> Please press space as soon as you recall the target.,32,6,5,CuePresentation,True,True,3,,,True,11_8_2023_23_32_43,0c8mkfytab041ba,html-keyboard-response,681,1118166,0.0-681.0,paper,pipe,paper,,,,6,,,,,,1,False,True,0.258097566940599,2,Correct,999.0,999.0,0.21438689354721924,0.15513755933052217
63,871,2354.70000001788,<h1>beetle</h1><br><br><br> Please press space as soon as you recall the target.,32,6,6,CuePresentation,True,True,3,,,True,11_8_2023_23_32_43,0c8mkfytab041ba,html-keyboard-response,685,1123569,0.0-685.0,kitten,beetle,kitten,,,,2,,,,,,1,True,True,0.316639554830722,2,Correct,999.0,999.0,0.2063417763103972,0.2415482329904833
64,1017,2656.69999998808,<h1>banner</h1><br><br><br> Please press space as soon as you recall the target.,32,28,1,CuePresentation,True,True,4,,,True,11_8_2023_23_32_43,0c8mkfytab041ba,html-keyboard-response,1001,1656678,0.0-1001.0,flag,banner,flag,,,,7,,,,,,1,True,True,0.616673037290324,4,Correct,999.0,999.0,0.15268708063062827,0.14865620657110032
65,1019,3631.0,<h1>bonnet</h1><br><br><br> Please press space as soon as you recall the target.,32,28,2,CuePresentation,False,True,4,,,True,11_8_2023_23_32_43,0c8mkfytab041ba,html-keyboard-response,1005,1663050,0.0-1005.0,hat,bonnet,scoop,,,,13,,,,,,0,False,True,0.295501525339056,2,Intrusion,0.40031417405515124,0.24828037014616158,0.25472718873111777,0.2243218327955416
66,1021,2277.90000000596,<h1>makeup</h1><br><br><br> Please press space as soon as you recall the target.,32,28,3,CuePresentation,True,True,4,,,True,11_8_2023_23_32_43,0c8mkfytab041ba,html-keyboard-response,1009,1668018,0.0-1009.0,paint,makeup,paint,,,,3,,,,,,1,False,True,0.505935810169567,3,Correct,999.0,999.0,0.18935442116523182,0.22589229168170674
67,1023,1057.5,<h1>gravy</h1><br><br><br> Please press space as soon as you recall the target.,32,28,4,CuePresentation,True,True,4,,,True,11_8_2023_23_32_43,0c8mkfytab041ba,html-keyboard-response,1013,1672150,0.0-1013.0,grits,gravy,grits,,,,5,,,,,,1,True,True,0.999999922215502,5,Correct,999.0,999.0,0.23772013516173313,0.22360384280888554
68,1025,1382.29999998212,<h1>tripod</h1><br><br><br> Please press space as soon as you recall the target.,32,28,5,CuePresentation,True,True,4,,,True,11_8_2023_23_32_43,0c8mkfytab041ba,html-keyboard-response,1017,1676408,0.0-1017.0,heater,tripod,heater,,,,4,,,,,,1,True,True,0.426391146408292,3,Correct,999.0,999.0,0.19533617538615794,0.18025008163806183
69,1027,5883.19999998808,<h1>crutch</h1><br><br><br> Please press space as soon as you recall the target.,32,28,6,CuePresentation,False,True,4,,,True,11_8_2023_23_32_43,0c8mkfytab041ba,html-keyboard-response,1021,1685192,0.0-1021.0,clinch,crutch,camel,,,,2,,,,,,0,True,True,0.366853562408624,2,Intrusion,0.07283976390306734,0.15420791166431203,0.15955570246986459,0.18605901319583107
70,1029,3996.59999999404,<h1>watch</h1><br><br><br> Please press space as soon as you recall the target.,32,28,7,CuePresentation,True,True,4,,,True,11_8_2023_23_32_43,0c8mkfytab041ba,html-keyboard-response,1025,1692433,0.0-1025.0,sponge,watch,sponge,,,,9,,,,,,1,True,True,0.17659200800734,1,Correct,999.0,999.0,0.15931245043754333,0.2927652495597758
71,1031,903.90000000596,<h1>muffin</h1><br><br><br> Please press space as soon as you recall the target.,32,28,8,CuePresentation,True,True,4,,,True,11_8_2023_23_32_43,0c8mkfytab041ba,html-keyboard-response,1029,1696524,0.0-1029.0,crumb,muffin,crumb,,,,15,,,,,,1,False,True,0.999999975253751,5,Correct,999.0,999.0,0.22427262321845687,0.2099073018844699
72,1033,5156.59999999404,<h1>apple</h1><br><br><br> Please press space as soon as you recall the target.,32,28,9,CuePresentation,False,True,4,,,True,11_8_2023_23_32_43,0c8mkfytab041ba,html-keyboard-response,1033,1704929,0.0-1033.0,0,apple,kiwi,,,,19,,,,,,0,False,True,0.630507650883796,4,Omission,999.0,999.0,0.23784353255852572,0.17942334049619413
73,1035,1484.5,<h1>gauze</h1><br><br><br> Please press space as soon as you recall the target.,32,28,10,CuePresentation,True,True,4,,,True,11_8_2023_23_32_43,0c8mkfytab041ba,html-keyboard-response,1037,1709424,0.0-1037.0,shelf,gauze,shelf,,,,17,,,,,,1,False,True,0.379523785471593,2,Correct,999.0,999.0,0.31204030327337606,0.23084405710572203
74,1182,1826.0,<h1>amber</h1><br><br><br> Please press space as soon as you recall the target.,32,28,1,CuePresentation,True,True,1,,,True,8_8_2023_11_36_48,0f6nydv2yw72ruv,html-keyboard-response,313,691389,0.0-313.0,orange,amber,orange,,,,7,,,,,,1,True,True,0.999999963859867,5,Correct,999.0,999.0,0.2656739060127843,0.2520752753119124
75,1184,2507.0,<h1>cereal</h1><br><br><br> Please press space as soon as you recall the target.,32,28,2,CuePresentation,True,True,1,,,True,8_8_2023_11_36_48,0f6nydv2yw72ruv,html-keyboard-response,317,697957,0.0-317.0,cookie,cereal,cookie,,,,10,,,,,,1,False,True,0.432807624318706,3,Correct,999.0,999.0,0.19006542408372692,0.18134110173111284
76,1186,1442.0,<h1>altar</h1><br><br><br> Please press space as soon as you recall the target.,32,28,3,CuePresentation,True,True,1,,,True,8_8_2023_11_36_48,0f6nydv2yw72ruv,html-keyboard-response,321,703581,0.0-321.0,rosary,altar,rosary,,,,18,,,,,,1,False,True,0.461896339092241,3,Correct,999.0,999.0,0.13085239403981083,0.05276686262288076
77,1188,2273.0,<h1>binder</h1><br><br><br> Please press space as soon as you recall the target.,32,28,4,CuePresentation,True,True,1,,,True,8_8_2023_11_36_48,0f6nydv2yw72ruv,html-keyboard-response,325,710031,0.0-325.0,weed,binder,weed,,,,4,,,,,,1,True,True,0.193818930259629,1,Correct,999.0,999.0,0.23012694515760157,0.14852459744386037
78,1190,1076.0,<h1>sandal</h1><br><br><br> Please press space as soon as you recall the target.,32,28,5,CuePresentation,True,True,1,,,True,8_8_2023_11_36_48,0f6nydv2yw72ruv,html-keyboard-response,329,714652,0.0-329.0,insole,sandal,insole,,,,25,,,,,,1,False,True,0.854520532339466,5,Correct,999.0,999.0,0.24377897175085572,0.255154847428349
79,1192,1507.0,<h1>blind</h1><br><br><br> Please press space as soon as you recall the target.,32,28,6,CuePresentation,True,True,1,,,True,8_8_2023_11_36_48,0f6nydv2yw72ruv,html-keyboard-response,333,719894,0.0-333.0,switch,blind,switch,,,,14,,,,,,1,False,True,0.252173754849272,2,Correct,999.0,999.0,0.12514786734084177,0.1925066595571838
80,1194,1071.0,<h1>nose</h1><br><br><br> Please press space as soon as you recall the target.,32,28,7,CuePresentation,True,True,1,,,True,8_8_2023_11_36_48,0f6nydv2yw72ruv,html-keyboard-response,337,726154,0.0-337.0,mouth,nose,mouth,,,,3,,,,,,1,False,True,0.661824468395778,4,Correct,999.0,999.0,0.2517728379280535,0.22212557166568647
81,1196,1482.0,<h1>ring</h1><br><br><br> Please press space as soon as you recall the target.,32,28,8,CuePresentation,True,True,1,,,True,8_8_2023_11_36_48,0f6nydv2yw72ruv,html-keyboard-response,341,730805,0.0-341.0,prism,ring,prism,,,,9,,,,,,1,True,True,0.359066430514316,2,Correct,999.0,999.0,0.24826483159684093,0.1908076593618862
82,1198,1071.0,<h1>jersey</h1><br><br><br> Please press space as soon as you recall the target.,32,28,9,CuePresentation,True,True,1,,,True,8_8_2023_11_36_48,0f6nydv2yw72ruv,html-keyboard-response,345,735077,0.0-345.0,shirt,jersey,shirt,,,,5,,,,,,1,True,True,0.649010826232407,4,Correct,999.0,999.0,0.12015334046424252,0.17759216767235037
83,1200,1249.0,<h1>paint</h1><br><br><br> Please press space as soon as you recall the target.,32,28,10,CuePresentation,True,True,1,,,True,8_8_2023_11_36_48,0f6nydv2yw72ruv,html-keyboard-response,349,739679,0.0-349.0,makeup,paint,makeup,,,,2,,,,,,1,True,True,0.505935810169567,3,Correct,999.0,999.0,0.2301597671390042,0.1851946947811489
84,1280,24910.0,<h1>chips</h1><br><br><br> Please press space as soon as you recall the target.,32,6,1,CuePresentation,False,True,2,,,True,8_8_2023_11_36_48,0f6nydv2yw72ruv,html-keyboard-response,489,1052043,0.0-489.0,0,chips,potato,,,,5,,,,,,0,True,True,0.603917424192587,4,Omission,999.0,999.0,0.1959057637385871,0.09184524744512378
85,1282,4544.0,<h1>money</h1><br><br><br> Please press space as soon as you recall the target.,32,6,2,CuePresentation,False,True,2,,,True,8_8_2023_11_36_48,0f6nydv2yw72ruv,html-keyboard-response,493,1059513,0.0-493.0,0,money,wand,,,,4,,,,,,0,True,True,0.215125963179727,2,Omission,999.0,999.0,0.12759718120312113,0.15548825420816134
86,1284,1039.0,<h1>eagle</h1><br><br><br> Please press space as soon as you recall the target.,32,6,3,CuePresentation,True,True,2,,,True,8_8_2023_11_36_48,0f6nydv2yw72ruv,html-keyboard-response,497,1064620,0.0-497.0,hawk,eagle,hawk,,,,1,,,,,,1,False,True,1.00000004736111,5,Correct,999.0,999.0,0.195730010783903,0.11530300712618255
87,1286,11648.0,<h1>kimono</h1><br><br><br> Please press space as soon as you recall the target.,32,6,4,CuePresentation,False,True,2,,,True,8_8_2023_11_36_48,0f6nydv2yw72ruv,html-keyboard-response,501,1080054,0.0-501.0,dress,kimono,locket,,,,6,,,,,,0,False,True,0.0103429243642662,1,Intrusion,0.7605196792763247,0.20028171118688978,0.09309012410099968,0.2102937038682057
88,1288,1588.0,<h1>chest</h1><br><br><br> Please press space as soon as you recall the target.,32,6,5,CuePresentation,False,True,2,,,True,8_8_2023_11_36_48,0f6nydv2yw72ruv,html-keyboard-response,505,1084774,0.0-505.0,kimono,chest,dial,,,,2,,,,,,0,True,True,0.197907306417201,1,Intrusion,0.2453903787956677,0.08664429303955533,0.19766190167762876,0.15476708073443515
89,1290,971.0,<h1>buggy</h1><br><br><br> Please press space as soon as you recall the target.,32,6,6,CuePresentation,True,True,2,,,True,8_8_2023_11_36_48,0f6nydv2yw72ruv,html-keyboard-response,509,1089577,0.0-509.0,cart,buggy,cart,,,,3,,,,,,1,False,True,0.428620405334395,3,Correct,999.0,999.0,0.14443147830216055,0.17099462329743484
90,1400,11468.0,<h1>zipper</h1><br><br><br> Please press space as soon as you recall the target.,32,16,1,CuePresentation,True,True,3,,,True,8_8_2023_11_36_48,0f6nydv2yw72ruv,html-keyboard-response,729,1537234,0.0-729.0,buckle,zipper,buckle,,,,3,,,,,,1,False,True,0.948896955583809,5,Correct,999.0,999.0,0.2802239317126432,0.26180963154018244
91,1402,3883.0,<h1>blower</h1><br><br><br> Please press space as soon as you recall the target.,32,16,2,CuePresentation,True,True,3,,,True,8_8_2023_11_36_48,0f6nydv2yw72ruv,html-keyboard-response,733,1546149,0.0-733.0,faucet,blower,faucet,,,,1,,,,,,1,False,True,0.127666791564387,1,Correct,999.0,999.0,0.14667494235638048,0.1825158981722373
92,1404,1791.0,<h1>sushi</h1><br><br><br> Please press space as soon as you recall the target.,32,16,3,CuePresentation,True,True,3,,,True,8_8_2023_11_36_48,0f6nydv2yw72ruv,html-keyboard-response,737,1552074,0.0-737.0,sundae,sushi,sundae,,,,5,,,,,,1,True,True,0.610210725864509,4,Correct,999.0,999.0,0.15798042262525436,0.1586817138865411
93,1406,2537.0,<h1>roll</h1><br><br><br> Please press space as soon as you recall the target.,32,16,4,CuePresentation,True,True,3,,,True,8_8_2023_11_36_48,0f6nydv2yw72ruv,html-keyboard-response,741,1559041,0.0-741.0,leek,roll,leek,,,,2,,,,,,1,True,True,0.228290377679196,2,Correct,999.0,999.0,0.20053218879113144,0.2214978555149625
94,1408,2334.0,<h1>folder</h1><br><br><br> Please press space as soon as you recall the target.,32,16,5,CuePresentation,True,True,3,,,True,8_8_2023_11_36_48,0f6nydv2yw72ruv,html-keyboard-response,745,1565198,0.0-745.0,file,folder,file,,,,11,,,,,,1,False,True,0.761074923120327,4,Correct,999.0,999.0,0.16451438761907047,0.07553338183132083
95,1410,12264.0,<h1>wire</h1><br><br><br> Please press space as soon as you recall the target.,32,16,6,CuePresentation,True,True,3,,,True,8_8_2023_11_36_48,0f6nydv2yw72ruv,html-keyboard-response,749,1581645,0.0-749.0,tape,wire,tape,,,,10,,,,,,1,False,True,0.501096990479819,3,Correct,999.0,999.0,0.22688453528010719,0.16386865147115742
96,1412,12425.0,<h1>flask</h1><br><br><br> Please press space as soon as you recall the target.,32,16,7,CuePresentation,True,True,3,,,True,8_8_2023_11_36_48,0f6nydv2yw72ruv,html-keyboard-response,753,1598129,0.0-753.0,cigar,flask,cigar,,,,12,,,,,,1,False,True,0.485236393705821,3,Correct,999.0,999.0,0.2746892319915312,0.174791407857968
97,1414,2121.0,<h1>train</h1><br><br><br> Please press space as soon as you recall the target.,32,16,8,CuePresentation,True,True,3,,,True,8_8_2023_11_36_48,0f6nydv2yw72ruv,html-keyboard-response,757,1604500,0.0-757.0,branch,train,branch,,,,7,,,,,,1,True,True,0.401947106568526,3,Correct,999.0,999.0,0.12985298104963833,0.10897283884135908
98,1416,1252.0,<h1>otter</h1><br><br><br> Please press space as soon as you recall the target.,32,16,9,CuePresentation,True,True,3,,,True,8_8_2023_11_36_48,0f6nydv2yw72ruv,html-keyboard-response,761,1609651,0.0-761.0,iguana,otter,iguana,,,,9,,,,,,1,True,True,0.866536373711664,5,Correct,999.0,999.0,0.196520123509752,0.18517052108955723
99,1418,2434.0,<h1>bison</h1><br><br><br> Please press space as soon as you recall the target.,32,16,10,CuePresentation,True,True,3,,,True,8_8_2023_11_36_48,0f6nydv2yw72ruv,html-keyboard-response,765,1617184,0.0-765.0,bikini,bison,bikini,,,,4,,,,,,1,True,True,0.0439818995812783,1,Correct,999.0,999.0,0.20720083186501523,0.15898118836078534
100,1534,1532.0,<h1>gauze</h1><br><br><br> Please press space as soon as you recall the target.,32,18,1,CuePresentation,True,True,4,,,True,8_8_2023_11_36_48,0f6nydv2yw72ruv,html-keyboard-response,1001,2092266,0.0-1001.0,shelf,gauze,shelf,,,,7,,,,,,1,True,True,0.379523785471593,2,Correct,999.0,999.0,0.33006434368074217,0.23043970981799877
101,1536,8456.0,<h1>boar</h1><br><br><br> Please press space as soon as you recall the target.,32,18,2,CuePresentation,True,True,4,,,True,8_8_2023_11_36_48,0f6nydv2yw72ruv,html-keyboard-response,1005,2103784,0.0-1005.0,coat,boar,coat,,,,13,,,,,,1,False,True,0.281532111177466,2,Correct,999.0,999.0,0.25949481217495296,0.31882558516121795
102,1538,18989.0,<h1>kilt</h1><br><br><br> Please press space as soon as you recall the target.,32,18,3,CuePresentation,True,True,4,,,True,8_8_2023_11_36_48,0f6nydv2yw72ruv,html-keyboard-response,1009,2126512,0.0-1009.0,tiara,kilt,tiara,,,,5,,,,,,1,True,True,0.750416700964624,4,Correct,999.0,999.0,0.2610350263523307,0.18290540548260936
103,1540,3433.0,<h1>badger</h1><br><br><br> Please press space as soon as you recall the target.,32,18,4,CuePresentation,True,True,4,,,True,8_8_2023_11_36_48,0f6nydv2yw72ruv,html-keyboard-response,1013,2133388,0.0-1013.0,acorn,badger,acorn,,,,9,,,,,,1,True,True,0.168680108473489,1,Correct,999.0,999.0,0.20801109501158682,0.3054930533548201
104,1542,14061.0,<h1>mast</h1><br><br><br> Please press space as soon as you recall the target.,32,18,5,CuePresentation,True,True,4,,,True,8_8_2023_11_36_48,0f6nydv2yw72ruv,html-keyboard-response,1017,2150785,0.0-1017.0,frame,mast,frame,,,,11,,,,,,1,False,True,0.455237418240569,3,Correct,999.0,999.0,0.1817887567853295,0.1930102467546061
105,1544,13739.0,<h1>tomato</h1><br><br><br> Please press space as soon as you recall the target.,32,18,6,CuePresentation,True,True,4,,,True,8_8_2023_11_36_48,0f6nydv2yw72ruv,html-keyboard-response,1021,2167774,0.0-1021.0,dough,tomato,dough,,,,2,,,,,,1,True,True,0.445283558369461,3,Correct,999.0,999.0,0.29691485357946,0.31136209091981437
106,1546,7417.0,<h1>chalk</h1><br><br><br> Please press space as soon as you recall the target.,32,18,7,CuePresentation,True,True,4,,,True,8_8_2023_11_36_48,0f6nydv2yw72ruv,html-keyboard-response,1025,2178495,0.0-1025.0,cloak,chalk,cloak,,,,16,,,,,,1,False,True,0.143585884717132,1,Correct,999.0,999.0,0.24855877623154368,0.2644894128710131
107,1548,23047.0,<h1>blouse</h1><br><br><br> Please press space as soon as you recall the target.,32,18,8,CuePresentation,True,True,4,,,True,8_8_2023_11_36_48,0f6nydv2yw72ruv,html-keyboard-response,1029,2205896,0.0-1029.0,skirt,blouse,skirt,,,,4,,,,,,1,True,True,0.999999967678032,5,Correct,999.0,999.0,0.30903100924784127,0.2887083928234239
108,1550,6683.0,<h1>squid</h1><br><br><br> Please press space as soon as you recall the target.,32,18,9,CuePresentation,True,True,4,,,True,8_8_2023_11_36_48,0f6nydv2yw72ruv,html-keyboard-response,1033,2216076,0.0-1033.0,fish,squid,fish,,,,17,,,,,,1,False,True,0.752440606490791,4,Correct,999.0,999.0,0.32988914914584533,0.26860765443589557
109,1552,2933.0,<h1>kite</h1><br><br><br> Please press space as soon as you recall the target.,32,18,10,CuePresentation,True,True,4,,,True,8_8_2023_11_36_48,0f6nydv2yw72ruv,html-keyboard-response,1037,2221958,0.0-1037.0,record,kite,record,,,,18,,,,,,1,False,True,0.150266880798289,1,Correct,999.0,999.0,0.23314271403511644,-0.005994569935962459
110,1705,2734.5,<h1>camel</h1><br><br><br> Please press space as soon as you recall the target.,32,30,1,CuePresentation,False,True,1,,,True,11_8_2023_10_9_34,0hfly3uzy7qnhxp,html-keyboard-response,329,627592,0.0-329.0,0,camel,crutch,,,,19,,,,,,0,False,True,0.366853562408624,2,Omission,999.0,999.0,0.206384088320101,0.10628075471875824
111,1707,4219.0,<h1>barrel</h1><br><br><br> Please press space as soon as you recall the target.,32,30,2,CuePresentation,False,True,1,,,True,11_8_2023_10_9_34,0hfly3uzy7qnhxp,html-keyboard-response,333,634730,0.0-333.0,0,barrel,crane,,,,22,,,,,,0,False,True,0.375189052412563,2,Omission,999.0,999.0,0.2193694551727041,0.16592351708176306
112,1709,2957.10000000009,<h1>parrot</h1><br><br><br> Please press space as soon as you recall the target.,32,30,3,CuePresentation,False,True,1,,,True,11_8_2023_10_9_34,0hfly3uzy7qnhxp,html-keyboard-response,337,640519,0.0-337.0,0,parrot,turtle,,,,2,,,,,,0,True,True,0.65206421477411,4,Omission,999.0,999.0,0.26258842178062364,0.22830218334598337
113,1711,1107.60000000009,<h1>amber</h1><br><br><br> Please press space as soon as you recall the target.,32,30,4,CuePresentation,True,True,1,,,True,11_8_2023_10_9_34,0hfly3uzy7qnhxp,html-keyboard-response,341,644475,0.0-341.0,orange,amber,orange,,,,18,,,,,,1,False,True,0.999999963859867,5,Correct,999.0,999.0,0.2815466813555749,0.26915955579515605
114,1713,2135.40000000037,<h1>bird</h1><br><br><br> Please press space as soon as you recall the target.,32,30,5,CuePresentation,True,True,1,,,True,11_8_2023_10_9_34,0hfly3uzy7qnhxp,html-keyboard-response,345,650073,0.0-345.0,crow,bird,crow,,,,9,,,,,,1,True,True,0.999999881451747,5,Correct,999.0,999.0,0.26258842178062364,0.24987443109663876
115,1715,1333.20000000019,<h1>wolf</h1><br><br><br> Please press space as soon as you recall the target.,32,30,6,CuePresentation,True,True,1,,,True,11_8_2023_10_9_34,0hfly3uzy7qnhxp,html-keyboard-response,349,654763,0.0-349.0,bowite,wolf,bowtie,,,,5,,,,,,1,True,True,0.208376515332164,2,Correct,999.0,999.0,0.1771520054825548,0.17224293337610372
116,1717,3189.39999999991,<h1>leash</h1><br><br><br> Please press space as soon as you recall the target.,32,30,7,CuePresentation,False,True,1,,,True,11_8_2023_10_9_34,0hfly3uzy7qnhxp,html-keyboard-response,353,661456,0.0-353.0,possum,leash,drink,,,,15,,,,,,0,False,True,0.108463556475143,1,Intrusion,0.259105822906304,0.1837626581529402,0.12103186235295403,0.2344909093054839
117,1719,6890.59999999963,<h1>coyote</h1><br><br><br> Please press space as soon as you recall the target.,32,30,8,CuePresentation,True,True,1,,,True,11_8_2023_10_9_34,0hfly3uzy7qnhxp,html-keyboard-response,357,672201,0.0-357.0,cobra,coyote,cobra,,,,24,,,,,,1,False,True,0.579578025639824,3,Correct,999.0,999.0,0.1771520054825548,0.2574595934403311
118,1721,1896.79999999981,<h1>slicer</h1><br><br><br> Please press space as soon as you recall the target.,32,30,9,CuePresentation,False,True,1,,,True,11_8_2023_10_9_34,0hfly3uzy7qnhxp,html-keyboard-response,361,677494,0.0-361.0,pupil,slicer,hummus,,,,7,,,,,,0,True,True,0.500551068441678,3,Intrusion,0.02915571203495882,-0.08442422651932081,0.24278744789005116,0.21164325332866407
119,1723,3528.5,<h1>dress</h1><br><br><br> Please press space as soon as you recall the target.,32,30,10,CuePresentation,False,True,1,,,True,11_8_2023_10_9_34,0hfly3uzy7qnhxp,html-keyboard-response,365,684368,0.0-365.0,0,dress,radio,,,,4,,,,,,0,True,True,0.003992160614718,1,Omission,999.0,999.0,0.21564804620266595,0.00403198727631629
120,1809,2777.60000000009,<h1>kiwi</h1><br><br><br> Please press space as soon as you recall the target.,32,8,1,CuePresentation,True,True,2,,,True,11_8_2023_10_9_34,0hfly3uzy7qnhxp,html-keyboard-response,521,989477,0.0-521.0,apple,kiwi,apple,,,,2,,,,,,1,True,True,0.630507650883796,4,Correct,999.0,999.0,0.24700695287117144,0.2590710059225356
121,1811,2807.69999999972,<h1>kimono</h1><br><br><br> Please press space as soon as you recall the target.,32,8,2,CuePresentation,False,True,2,,,True,11_8_2023_10_9_34,0hfly3uzy7qnhxp,html-keyboard-response,525,996191,0.0-525.0,kilt,kimono,locket,,,,4,,,,,,0,True,True,0.0103429243642662,1,Intrusion,0.7504167009646243,0.096619961948252,0.11019364050343443,0.1557544376172267
122,1813,5300.0,<h1>quiche</h1><br><br><br> Please press space as soon as you recall the target.,32,8,3,CuePresentation,False,True,2,,,True,11_8_2023_10_9_34,0hfly3uzy7qnhxp,html-keyboard-response,529,1004368,0.0-529.0,0,quiche,pasta,,,,3,,,,,,0,False,True,1.00000006075905,5,Omission,999.0,999.0,0.28521721132625755,0.2341612935096295
123,1815,3770.09999999963,<h1>bolt</h1><br><br><br> Please press space as soon as you recall the target.,32,8,4,CuePresentation,False,True,2,,,True,11_8_2023_10_9_34,0hfly3uzy7qnhxp,html-keyboard-response,533,1010698,0.0-533.0,0,bolt,towel,,,,8,,,,,,0,False,True,0.275631401009094,2,Omission,999.0,999.0,0.19448097955027568,0.2997326217103634
124,1817,5463.79999999981,<h1>napkin</h1><br><br><br> Please press space as soon as you recall the target.,32,8,5,CuePresentation,False,True,2,,,True,11_8_2023_10_9_34,0hfly3uzy7qnhxp,html-keyboard-response,537,1018550,0.0-537.0,0,napkin,tinsel,,,,7,,,,,,0,True,True,0.433620537301468,3,Omission,999.0,999.0,0.29812587366361215,0.2530509407493833
125,1819,4031.0,<h1>cannon</h1><br><br><br> Please press space as soon as you recall the target.,32,8,6,CuePresentation,False,True,2,,,True,11_8_2023_10_9_34,0hfly3uzy7qnhxp,html-keyboard-response,541,1024951,0.0-541.0,0,cannon,garlic,,,,6,,,,,,0,False,True,0.114988934111725,1,Omission,999.0,999.0,0.17495250159665907,0.2748455580939676
126,1821,3350.0,<h1>donkey</h1><br><br><br> Please press space as soon as you recall the target.,32,8,7,CuePresentation,False,True,2,,,True,11_8_2023_10_9_34,0hfly3uzy7qnhxp,html-keyboard-response,545,1031215,0.0-545.0,0,donkey,throne,,,,1,,,,,,0,False,True,0.108564855475739,1,Omission,999.0,999.0,0.19369229141686672,0.08252184911514118
127,1823,3694.89999999991,<h1>walnut</h1><br><br><br> Please press space as soon as you recall the target.,32,8,8,CuePresentation,False,True,2,,,True,11_8_2023_10_9_34,0hfly3uzy7qnhxp,html-keyboard-response,549,1037412,0.0-549.0,0,walnut,earwig,,,,5,,,,,,0,True,True,0.242173377562161,2,Omission,999.0,999.0,0.21625356715746308,0.13193230747533477
128,1945,5248.89999999991,<h1>melon</h1><br><br><br> Please press space as soon as you recall the target.,32,20,1,CuePresentation,False,True,3,,,True,11_8_2023_10_9_34,0hfly3uzy7qnhxp,html-keyboard-response,801,1514958,0.0-801.0,kiwi,melon,radish,,,,12,,,,,,0,False,True,0.568227410855373,3,Intrusion,1.0000000213560836,0.5682274108553733,0.24275996357743423,0.2752486626976154
129,1947,1075.70000000019,<h1>stump</h1><br><br><br> Please press space as soon as you recall the target.,32,20,2,CuePresentation,True,True,3,,,True,11_8_2023_10_9_34,0hfly3uzy7qnhxp,html-keyboard-response,805,1519206,0.0-805.0,stem,stump,stem,,,,7,,,,,,1,True,True,0.402091789020628,3,Correct,999.0,999.0,0.2580697230226442,0.1854413105767686
130,1949,1463.70000000019,<h1>bumper</h1><br><br><br> Please press space as soon as you recall the target.,32,20,3,CuePresentation,True,True,3,,,True,11_8_2023_10_9_34,0hfly3uzy7qnhxp,html-keyboard-response,809,1523838,0.0-809.0,tank,bumper,tank,,,,15,,,,,,1,False,True,0.337314081016891,2,Correct,999.0,999.0,0.18997247847410365,0.18146720532191793
131,1951,2637.79999999981,<h1>bikini</h1><br><br><br> Please press space as soon as you recall the target.,32,20,4,CuePresentation,True,True,3,,,True,11_8_2023_10_9_34,0hfly3uzy7qnhxp,html-keyboard-response,813,1529932,0.0-813.0,bison,bikini,bison,,,,13,,,,,,1,False,True,0.0439818995812783,1,Correct,999.0,999.0,0.13489826075626138,0.24664498876838586
132,1953,1193.59999999963,<h1>banner</h1><br><br><br> Please press space as soon as you recall the target.,32,20,5,CuePresentation,True,True,3,,,True,11_8_2023_10_9_34,0hfly3uzy7qnhxp,html-keyboard-response,817,1534161,0.0-817.0,flag,banner,flag,,,,14,,,,,,1,False,True,0.616673037290324,4,Correct,999.0,999.0,0.1417972382243129,0.15106505805830658
133,1955,12850.1999999997,<h1>poppy</h1><br><br><br> Please press space as soon as you recall the target.,32,20,6,CuePresentation,False,True,3,,,True,11_8_2023_10_9_34,0hfly3uzy7qnhxp,html-keyboard-response,821,1550338,0.0-821.0,0,poppy,crayon,,,,18,,,,,,0,False,True,0.237959707772953,2,Omission,999.0,999.0,0.2741132644101365,0.18526120466131835
134,1957,3908.0,<h1>yogurt</h1><br><br><br> Please press space as soon as you recall the target.,32,20,7,CuePresentation,True,True,3,,,True,11_8_2023_10_9_34,0hfly3uzy7qnhxp,html-keyboard-response,825,1556843,0.0-825.0,cocoon,yogurt,cocoon,,,,2,,,,,,1,True,True,0.135617011678999,1,Correct,999.0,999.0,0.20556160952834418,0.22197288045343253
135,1959,12536.0,<h1>squash</h1><br><br><br> Please press space as soon as you recall the target.,32,20,8,CuePresentation,False,True,3,,,True,11_8_2023_10_9_34,0hfly3uzy7qnhxp,html-keyboard-response,829,1573372,0.0-829.0,stomp,squash,root,,,,4,,,,,,0,True,True,0.246029577781375,2,Intrusion,0.08143301086838287,-0.03346800114871515,0.2209390716481544,0.17205598845482975
136,1961,3763.5,<h1>orchid</h1><br><br><br> Please press space as soon as you recall the target.,32,20,9,CuePresentation,False,True,3,,,True,11_8_2023_10_9_34,0hfly3uzy7qnhxp,html-keyboard-response,833,1580851,0.0-833.0,melon,orchid,flower,,,,9,,,,,,0,True,True,1.0000000758957,5,Intrusion,0.44806479030865537,0.44806479030865537,0.2818353727895232,0.26293630165515014
137,1963,16558.3000000003,<h1>bacon</h1><br><br><br> Please press space as soon as you recall the target.,32,20,10,CuePresentation,False,True,3,,,True,11_8_2023_10_9_34,0hfly3uzy7qnhxp,html-keyboard-response,837,1600541,0.0-837.0,0,bacon,hotdog,,,,5,,,,,,0,True,True,0.654814915149301,4,Omission,999.0,999.0,0.20693031107697848,0.19612630208558893
138,2055,6103.5,<h1>teepee</h1><br><br><br> Please press space as soon as you recall the target.,32,10,1,CuePresentation,False,True,4,,,True,11_8_2023_10_9_34,0hfly3uzy7qnhxp,html-keyboard-response,1009,1888602,0.0-1009.0,0,teepee,stove,,,,9,,,,,,0,True,True,0.441684669598265,3,Omission,999.0,999.0,0.27134556465742177,0.23957850798974123
139,2057,7197.20000000019,<h1>weed</h1><br><br><br> Please press space as soon as you recall the target.,32,10,2,CuePresentation,False,True,4,,,True,11_8_2023_10_9_34,0hfly3uzy7qnhxp,html-keyboard-response,1013,1898385,0.0-1013.0,teepee,weed,binder,,,,7,,,,,,0,True,True,0.193818930259629,1,Intrusion,0.22200486297263572,0.3155469296245793,0.14409518737261767,0.2357724838023814
140,2059,5554.39999999991,<h1>bonnet</h1><br><br><br> Please press space as soon as you recall the target.,32,10,3,CuePresentation,False,True,4,,,True,11_8_2023_10_9_34,0hfly3uzy7qnhxp,html-keyboard-response,1017,1907377,0.0-1017.0,0,bonnet,scoop,,,,10,,,,,,0,False,True,0.295501525339056,2,Omission,999.0,999.0,0.30017760979227515,0.2296194475281126
141,2061,1275.39999999991,<h1>ship</h1><br><br><br> Please press space as soon as you recall the target.,32,10,4,CuePresentation,True,True,4,,,True,11_8_2023_10_9_34,0hfly3uzy7qnhxp,html-keyboard-response,1021,1911109,0.0-1021.0,yacht,ship,yacht,,,,1,,,,,,1,False,True,0.573249475065072,3,Correct,999.0,999.0,0.17020883154921654,0.09336368440831139
142,2063,2548.39999999991,<h1>jacket</h1><br><br><br> Please press space as soon as you recall the target.,32,10,5,CuePresentation,True,True,4,,,True,11_8_2023_10_9_34,0hfly3uzy7qnhxp,html-keyboard-response,1025,1917140,0.0-1025.0,blazer,jacket,blazer,,,,2,,,,,,1,True,True,1.00000002728999,5,Correct,999.0,999.0,0.3161641384392676,0.2781732557253386
143,2065,4676.89999999991,<h1>block</h1><br><br><br> Please press space as soon as you recall the target.,32,10,6,CuePresentation,False,True,4,,,True,11_8_2023_10_9_34,0hfly3uzy7qnhxp,html-keyboard-response,1029,1926857,0.0-1029.0,breeze,block,kayak,,,,4,,,,,,0,True,True,0.234036216185256,2,Intrusion,0.17859410063608713,0.44901949871931207,0.17994357883525924,0.29032836655266947
144,2067,6961.39999999991,<h1>sundae</h1><br><br><br> Please press space as soon as you recall the target.,32,10,7,CuePresentation,True,True,4,,,True,11_8_2023_10_9_34,0hfly3uzy7qnhxp,html-keyboard-response,1033,1937175,0.0-1033.0,sushi,sundae,sushi,,,,5,,,,,,1,True,True,0.610210725864509,4,Correct,999.0,999.0,0.15110150999304942,0.09865697420172495
145,2069,1100.29999999981,<h1>mouth</h1><br><br><br> Please press space as soon as you recall the target.,32,10,8,CuePresentation,True,True,4,,,True,11_8_2023_10_9_34,0hfly3uzy7qnhxp,html-keyboard-response,1037,1941541,0.0-1037.0,nose,mouth,nose,,,,8,,,,,,1,False,True,0.661824468395778,4,Correct,999.0,999.0,0.23612245130847526,0.21419337443185416
146,2071,1324.5,<h1>globe</h1><br><br><br> Please press space as soon as you recall the target.,32,10,9,CuePresentation,True,True,4,,,True,11_8_2023_10_9_34,0hfly3uzy7qnhxp,html-keyboard-response,1041,1946328,0.0-1041.0,coal,globe,coal,,,,3,,,,,,1,False,True,0.0521687423182363,1,Correct,999.0,999.0,0.12010913313446463,0.11906675383802338
147,2073,1081.20000000019,<h1>zipper</h1><br><br><br> Please press space as soon as you recall the target.,32,10,10,CuePresentation,False,True,4,,,True,11_8_2023_10_9_34,0hfly3uzy7qnhxp,html-keyboard-response,1045,1950115,0.0-1045.0,bluckel,zipper,buckle,,,,6,,,,,,0,False,True,0.948896955583809,5,Misspelled Intrusion,999.0,999.0,0.330721984687588,0.29895683145791696
148,2226,4778.0,<h1>possum</h1><br><br><br> Please press space as soon as you recall the target.,32,30,1,CuePresentation,False,True,1,,,True,29_8_2023_13_37_33,185sj0p6eo8tfyo,html-keyboard-response,329,595942,0.0-329.0,hum,possum,slime,,,,6,,,,,,0,False,False,0.299240600347622,2,Intrusion,0.021718233165258827,0.004824189572554191,0.23319509965759663,0.3099180451320028
149,2228,9442.0,<h1>cocoon</h1><br><br><br> Please press space as soon as you recall the target.,32,30,2,CuePresentation,False,True,1,,,True,29_8_2023_13_37_33,185sj0p6eo8tfyo,html-keyboard-response,333,608874,0.0-333.0,racoon,cocoon,yogurt,,,,14,,,,,,0,False,False,0.135617011678999,1,Intrusion,0.4233391001664682,-0.008841485851852555,0.22906066850814744,0.2379072657176028
150,2230,15738.0,<h1>dress</h1><br><br><br> Please press space as soon as you recall the target.,32,30,3,CuePresentation,False,True,1,,,True,29_8_2023_13_37_33,185sj0p6eo8tfyo,html-keyboard-response,337,629426,0.0-337.0,hel,dress,radio,,,,13,,,,,,0,False,False,0.003992160614718,1,Misspelled Intrusion,999.0,999.0,0.2193003294090552,0.006793902366803014
151,2232,3124.0,<h1>leash</h1><br><br><br> Please press space as soon as you recall the target.,32,30,4,CuePresentation,False,True,1,,,True,29_8_2023_13_37_33,185sj0p6eo8tfyo,html-keyboard-response,341,636981,0.0-341.0,quiche,leash,drink,,,,5,,,,,,0,True,False,0.108463556475143,1,Intrusion,0.0056054063898035794,0.38424016638702346,0.14807992480110985,0.24218728530037945
152,2234,3029.0,<h1>seed</h1><br><br><br> Please press space as soon as you recall the target.,32,30,5,CuePresentation,False,True,1,,,True,29_8_2023_13_37_33,185sj0p6eo8tfyo,html-keyboard-response,345,644381,0.0-345.0,plant,seed,leaf,,,,4,,,,,,0,True,False,0.449197073479032,3,Intrusion,0.4830816642194358,0.48463424832520885,0.17512136026832767,0.25862859866669313
153,2236,12918.9999999999,<h1>crutch</h1><br><br><br> Please press space as soon as you recall the target.,32,30,6,CuePresentation,False,True,1,,,True,29_8_2023_13_37_33,185sj0p6eo8tfyo,html-keyboard-response,349,662012,0.0-349.0,limp,crutch,camel,,,,7,,,,,,0,True,False,0.366853562408624,2,Intrusion,0.11841874948743318,0.15942946149233858,0.15135035112516504,0.21557417777216872
154,2238,10185.0,<h1>sandal</h1><br><br><br> Please press space as soon as you recall the target.,32,30,7,CuePresentation,False,True,1,,,True,29_8_2023_13_37_33,185sj0p6eo8tfyo,html-keyboard-response,353,675391,0.0-353.0,beach,sandal,insole,,,,3,,,,,,0,False,False,0.854520532339466,5,Intrusion,0.265764334344261,0.19745233752943656,0.25021178989305864,0.25687849404600366
155,2240,2530.00000000012,<h1>blazer</h1><br><br><br> Please press space as soon as you recall the target.,32,30,8,CuePresentation,False,True,1,,,True,29_8_2023_13_37_33,185sj0p6eo8tfyo,html-keyboard-response,357,681674,0.0-357.0,dress,blazer,jacket,,,,9,,,,,,0,True,False,1.00000002728999,5,Intrusion,0.6015599392863394,0.6015599392863394,0.27828723548385814,0.26584391148720066
156,2242,2596.0,<h1>barrel</h1><br><br><br> Please press space as soon as you recall the target.,32,30,9,CuePresentation,False,True,1,,,True,29_8_2023_13_37_33,185sj0p6eo8tfyo,html-keyboard-response,361,690504,0.0-361.0,arrow,barrel,crane,,,,24,,,,,,0,False,False,0.375189052412563,2,Intrusion,0.3852769887200088,0.34162357478195476,0.24942355567784158,0.17056736240518047
157,2244,7282.0,<h1>vial</h1><br><br><br> Please press space as soon as you recall the target.,32,30,10,CuePresentation,False,True,1,,,True,29_8_2023_13_37_33,185sj0p6eo8tfyo,html-keyboard-response,365,702097,0.0-365.0,possum,vial,goblet,,,,2,,,,,,0,True,False,0.665338846800113,4,Intrusion,0.2652706190969337,0.20271650339876895,0.3336519386790163,0.2622317399513296
158,2366,4110.0,<h1>napkin</h1><br><br><br> Please press space as soon as you recall the target.,32,20,1,CuePresentation,True,True,2,,,True,29_8_2023_13_37_33,185sj0p6eo8tfyo,html-keyboard-response,617,1150904,0.0-617.0,tinsel,napkin,tinsel,,,,5,,,,,,1,True,False,0.433620537301468,3,Correct,999.0,999.0,0.25347818582959175,0.2509067040953545
159,2368,8515.0,<h1>fudge</h1><br><br><br> Please press space as soon as you recall the target.,32,20,2,CuePresentation,False,True,2,,,True,29_8_2023_13_37_33,185sj0p6eo8tfyo,html-keyboard-response,621,1164193,0.0-621.0,quinua,fudge,rifle,,,,8,,,,,,0,False,False,0.0253189744766434,1,Misspelled Intrusion,999.0,999.0,0.2596872045807025,0.1417302062042282
160,2370,1332.0,<h1>potato</h1><br><br><br> Please press space as soon as you recall the target.,32,20,3,CuePresentation,True,True,2,,,True,29_8_2023_13_37_33,185sj0p6eo8tfyo,html-keyboard-response,625,1172534,0.0-625.0,chips,potato,chips,,,,4,,,,,,1,True,False,0.603917424192587,4,Correct,999.0,999.0,0.2822856381970087,0.2736412061913063
161,2372,11101.0,<h1>moose</h1><br><br><br> Please press space as soon as you recall the target.,32,20,4,CuePresentation,False,True,2,,,True,29_8_2023_13_37_33,185sj0p6eo8tfyo,html-keyboard-response,629,1189942,0.0-629.0,snake,moose,cactus,,,,3,,,,,,0,False,False,0.346216021008962,2,Intrusion,0.49522492741826607,0.40787909612978945,0.152184769812664,0.2162101541317468
162,2374,5610.0,<h1>crank</h1><br><br><br> Please press space as soon as you recall the target.,32,20,5,CuePresentation,False,True,2,,,True,29_8_2023_13_37_33,185sj0p6eo8tfyo,html-keyboard-response,633,1200097,0.0-633.0,crn,crank,pulley,,,,9,,,,,,0,True,False,0.999999982961594,5,Misspelled Intrusion,999.0,999.0,0.2719322571700595,0.25277258017554544
163,2376,2494.0,<h1>kite</h1><br><br><br> Please press space as soon as you recall the target.,32,20,6,CuePresentation,False,True,2,,,True,29_8_2023_13_37_33,185sj0p6eo8tfyo,html-keyboard-response,637,1205985,0.0-637.0,noose,kite,record,,,,13,,,,,,0,False,False,0.150266880798289,1,Intrusion,0.41761641876069877,0.0782398846539463,0.23506064278064662,0.05321330672212256
164,2378,1795.0,<h1>otter</h1><br><br><br> Please press space as soon as you recall the target.,32,20,7,CuePresentation,False,True,2,,,True,29_8_2023_13_37_33,185sj0p6eo8tfyo,html-keyboard-response,641,1211177,0.0-641.0,moose,otter,iguana,,,,1,,,,,,0,False,False,0.866536373711664,5,Intrusion,0.518500628092356,0.5061479871622042,0.18360933255841527,0.16068851633880066
165,2380,2525.0,<h1>pipe</h1><br><br><br> Please press space as soon as you recall the target.,32,20,8,CuePresentation,False,True,2,,,True,29_8_2023_13_37_33,185sj0p6eo8tfyo,html-keyboard-response,645,1217278,0.0-645.0,drain,pipe,paper,,,,20,,,,,,0,False,False,0.258097566940599,2,Intrusion,0.6054441523130167,0.1924482674171217,0.24968464744061,0.19138943295997363
166,2382,6012.99999999977,<h1>prism</h1><br><br><br> Please press space as soon as you recall the target.,32,20,9,CuePresentation,False,True,2,,,True,29_8_2023_13_37_33,185sj0p6eo8tfyo,html-keyboard-response,649,1227546,0.0-649.0,jewel,prism,ring,,,,7,,,,,,0,True,False,0.359066430514316,2,Intrusion,0.1878109839071544,0.35510986802493244,0.19111924046809803,0.23477185652505875
167,2384,4255.0,<h1>lens</h1><br><br><br> Please press space as soon as you recall the target.,32,20,10,CuePresentation,False,True,2,,,True,29_8_2023_13_37_33,185sj0p6eo8tfyo,html-keyboard-response,653,1235578,0.0-653.0,camera,lens,crepe,,,,2,,,,,,0,True,False,0.0896239999584382,1,Intrusion,0.676703225308897,0.02635482479655655,0.19111924046809803,0.20443391936395958
168,2476,2083.0,<h1>boar</h1><br><br><br> Please press space as soon as you recall the target.,32,10,1,CuePresentation,False,True,3,,,True,29_8_2023_13_37_33,185sj0p6eo8tfyo,html-keyboard-response,825,1544049,0.0-825.0,moat,boar,coat,,,,10,,,,,,0,False,False,0.281532111177466,2,Intrusion,0.17351642954463947,0.22698657140720768,0.15886393468346563,0.23949613410647322
169,2478,1357.0,<h1>prune</h1><br><br><br> Please press space as soon as you recall the target.,32,10,2,CuePresentation,False,True,3,,,True,29_8_2023_13_37_33,185sj0p6eo8tfyo,html-keyboard-response,829,1548570,0.0-829.0,juice,prune,thorn,,,,1,,,,,,0,False,False,0.999999978936332,5,Intrusion,0.3517692278878137,0.3517692278878137,0.22526256043033988,0.18222159273556252
170,2480,5742.00000000023,<h1>makeup</h1><br><br><br> Please press space as soon as you recall the target.,32,10,3,CuePresentation,False,True,3,,,True,29_8_2023_13_37_33,185sj0p6eo8tfyo,html-keyboard-response,833,1557419,0.0-833.0,book,makeup,paint,,,,8,,,,,,0,False,False,0.505935810169567,3,Intrusion,0.12385826850285826,0.13596882866397125,0.20765908437192143,0.23447009148967624
171,2482,4222.0,<h1>folder</h1><br><br><br> Please press space as soon as you recall the target.,32,10,4,CuePresentation,False,True,3,,,True,29_8_2023_13_37_33,185sj0p6eo8tfyo,html-keyboard-response,837,1565486,0.0-837.0,moat,folder,file,,,,6,,,,,,0,False,False,0.761074923120327,4,Intrusion,0.1199673848314194,0.011867560116924355,0.1998273044025558,0.0840619987736224
172,2484,3014.99999999977,<h1>bucket</h1><br><br><br> Please press space as soon as you recall the target.,32,10,5,CuePresentation,False,True,3,,,True,29_8_2023_13_37_33,185sj0p6eo8tfyo,html-keyboard-response,841,1571770,0.0-841.0,moat,bucket,shovel,,,,9,,,,,,0,True,False,1.00000008526887,5,Intrusion,0.13546747160041497,0.13546747160041497,0.3285100828594766,0.29120508272562123
173,2486,3429.0,<h1>shorts</h1><br><br><br> Please press space as soon as you recall the target.,32,10,6,CuePresentation,False,True,3,,,True,29_8_2023_13_37_33,185sj0p6eo8tfyo,html-keyboard-response,845,1580685,0.0-845.0,jute,shorts,raft,,,,4,,,,,,0,True,False,0.213414433174442,2,Intrusion,0.397356323021776,0.09589172321614774,0.16989439248836052,0.15265891059795986
174,2488,8994.0,<h1>weed</h1><br><br><br> Please press space as soon as you recall the target.,32,10,7,CuePresentation,False,True,3,,,True,29_8_2023_13_37_33,185sj0p6eo8tfyo,html-keyboard-response,849,1592957,0.0-849.0,boar,weed,binder,,,,2,,,,,,0,True,False,0.193818930259629,1,Intrusion,0.35025148252390353,-0.025141994872777886,0.20288860267983783,0.23564634522516878
175,2490,2351.00000000023,<h1>toilet</h1><br><br><br> Please press space as soon as you recall the target.,32,10,8,CuePresentation,False,True,3,,,True,29_8_2023_13_37_33,185sj0p6eo8tfyo,html-keyboard-response,853,1599032,0.0-853.0,bowl,toilet,desk,,,,7,,,,,,0,True,False,0.427165723387472,3,Intrusion,0.36776180215010956,0.19877217555789695,0.25125914212264117,0.1699559313083639
176,2492,4734.0,<h1>sponge</h1><br><br><br> Please press space as soon as you recall the target.,32,10,9,CuePresentation,False,True,3,,,True,29_8_2023_13_37_33,185sj0p6eo8tfyo,html-keyboard-response,857,1606904,0.0-857.0,shorts,sponge,watch,,,,3,,,,,,0,False,False,0.17659200800734,1,Intrusion,0.1708885874409645,0.2875971053986141,0.3132584992002731,0.1630129301960203
177,2494,6988.99999999977,<h1>sundae</h1><br><br><br> Please press space as soon as you recall the target.,32,10,10,CuePresentation,False,True,3,,,True,29_8_2023_13_37_33,185sj0p6eo8tfyo,html-keyboard-response,861,1617789,0.0-861.0,seeds,sundae,sushi,,,,5,,,,,,0,True,False,0.610210725864509,4,Intrusion,0.2683146938349975,0.12844468010965568,0.20624501721652713,0.12712790986350495
178,2580,15446.0,<h1>eagle</h1><br><br><br> Please press space as soon as you recall the target.,32,8,1,CuePresentation,False,True,4,,,True,29_8_2023_13_37_33,185sj0p6eo8tfyo,html-keyboard-response,1017,1901005,0.0-1017.0,brach,eagle,hawk,,,,6,,,,,,0,False,False,1.00000004736111,5,Intrusion,0.1321689842393075,0.1321689842393075,0.246905836739987,0.1931133931241927
179,2582,8171.0,<h1>stem</h1><br><br><br> Please press space as soon as you recall the target.,32,8,2,CuePresentation,False,True,4,,,True,29_8_2023_13_37_33,185sj0p6eo8tfyo,html-keyboard-response,1021,1913104,0.0-1021.0,cream,stem,stump,,,,2,,,,,,0,True,False,0.402091789020628,3,Intrusion,0.16589856499597788,0.20274687992419882,0.15220554239041928,0.2253059091889984
180,2584,7570.0,<h1>target</h1><br><br><br> Please press space as soon as you recall the target.,32,8,3,CuePresentation,False,True,4,,,True,29_8_2023_13_37_33,185sj0p6eo8tfyo,html-keyboard-response,1025,1924835,0.0-1025.0,leech,target,clasp,,,,3,,,,,,0,False,False,0.263086746212108,2,Intrusion,0.21405596706664756,0.21929844647226387,0.08649215093687038,0.2821189949726994
181,2586,6523.0,<h1>monkey</h1><br><br><br> Please press space as soon as you recall the target.,32,8,4,CuePresentation,False,True,4,,,True,29_8_2023_13_37_33,185sj0p6eo8tfyo,html-keyboard-response,1029,1934717,0.0-1029.0,practice,monkey,grill,,,,5,,,,,,0,True,False,0.0769030395339553,1,Intrusion,-0.010364276399051103,0.022178524076378325,0.25253599955872036,0.17022080088185518
182,2588,13713.0,<h1>pepper</h1><br><br><br> Please press space as soon as you recall the target.,32,8,5,CuePresentation,False,True,4,,,True,29_8_2023_13_37_33,185sj0p6eo8tfyo,html-keyboard-response,1033,1954068,0.0-1033.0,breach,pepper,game,,,,1,,,,,,0,False,False,0.0586781382709476,1,Intrusion,0.03141050178011757,0.12742850307500225,0.1531417108437874,0.0730342342036777
183,2590,3541.0,<h1>donkey</h1><br><br><br> Please press space as soon as you recall the target.,32,8,6,CuePresentation,False,True,4,,,True,29_8_2023_13_37_33,185sj0p6eo8tfyo,html-keyboard-response,1037,1963576,0.0-1037.0,monkey,donkey,throne,,,,8,,,,,,0,False,False,0.108564855475739,1,Intrusion,0.9999999967845237,0.10856485547573878,0.25253599955872036,0.13773367835517034
184,2592,2237.0,<h1>bolt</h1><br><br><br> Please press space as soon as you recall the target.,32,8,7,CuePresentation,False,True,4,,,True,29_8_2023_13_37_33,185sj0p6eo8tfyo,html-keyboard-response,1041,1970871,0.0-1041.0,noose,bolt,towel,,,,7,,,,,,0,True,False,0.275631401009094,2,Intrusion,0.5024551797577851,0.46949372582652754,0.22261998511749123,0.21646265760805022
185,2594,2266.0,<h1>tiara</h1><br><br><br> Please press space as soon as you recall the target.,32,8,8,CuePresentation,True,True,4,,,True,29_8_2023_13_37_33,185sj0p6eo8tfyo,html-keyboard-response,1045,1976243,0.0-1045.0,kilt,tiara,kilt,,,,4,,,,,,1,True,False,0.750416700964624,4,Correct,999.0,999.0,0.14338498758806714,0.20626554327925678
186,2699,660.599999964237,<h1>folder</h1><br><br><br> Please press space as soon as you recall the target.,32,14,1,CuePresentation,True,True,1,,,True,8_8_2023_9_10_3,1es7mkttar25fxg,html-keyboard-response,201,392261,0.0-201.0,file,folder,file,,,,9,,,,,,1,True,True,0.761074923120327,4,Correct,999.0,999.0,0.18523233158184113,0.09472344264761655
187,2701,1101.69999998808,<h1>binder</h1><br><br><br> Please press space as soon as you recall the target.,32,14,2,CuePresentation,True,True,1,,,True,8_8_2023_9_10_3,1es7mkttar25fxg,html-keyboard-response,205,396301,0.0-205.0,weed,binder,weed,,,,1,,,,,,1,False,True,0.193818930259629,1,Correct,999.0,999.0,0.2303111677844639,0.1612397512524166
188,2703,1334.70000004768,<h1>gravy</h1><br><br><br> Please press space as soon as you recall the target.,32,14,3,CuePresentation,True,True,1,,,True,8_8_2023_9_10_3,1es7mkttar25fxg,html-keyboard-response,209,400405,0.0-209.0,grits,gravy,grits,,,,3,,,,,,1,False,True,0.999999922215502,5,Correct,999.0,999.0,0.2322906173841431,0.20276333642909083
189,2705,1407.19999998808,<h1>kite</h1><br><br><br> Please press space as soon as you recall the target.,32,14,4,CuePresentation,True,True,1,,,True,8_8_2023_9_10_3,1es7mkttar25fxg,html-keyboard-response,213,404550,0.0-213.0,record,kite,record,,,,4,,,,,,1,True,True,0.150266880798289,1,Correct,999.0,999.0,0.20654350456555848,0.04749624047659747
190,2707,605.299999952316,<h1>boar</h1><br><br><br> Please press space as soon as you recall the target.,32,14,5,CuePresentation,True,True,1,,,True,8_8_2023_9_10_3,1es7mkttar25fxg,html-keyboard-response,217,407992,0.0-217.0,coat,boar,coat,,,,6,,,,,,1,False,True,0.281532111177466,2,Correct,999.0,999.0,0.1739802304521834,0.24236421150296705
191,2709,626.699999988079,<h1>alpaca</h1><br><br><br> Please press space as soon as you recall the target.,32,14,6,CuePresentation,True,True,1,,,True,8_8_2023_9_10_3,1es7mkttar25fxg,html-keyboard-response,221,411867,0.0-221.0,yarn,alpaca,yarn,,,,13,,,,,,1,False,True,0.730008656413105,4,Correct,999.0,999.0,0.22064482830295157,0.19628611441907368
192,2711,724.5,<h1>juice</h1><br><br><br> Please press space as soon as you recall the target.,32,14,7,CuePresentation,True,True,1,,,True,8_8_2023_9_10_3,1es7mkttar25fxg,html-keyboard-response,225,416961,0.0-225.0,soda,juice,soda,,,,12,,,,,,1,False,True,0.636879768274072,4,Correct,999.0,999.0,0.22187019257457796,0.15082597998217004
193,2713,1960.30000001192,<h1>chip</h1><br><br><br> Please press space as soon as you recall the target.,32,14,8,CuePresentation,True,True,1,,,True,8_8_2023_9_10_3,1es7mkttar25fxg,html-keyboard-response,229,421565,0.0-229.0,tablet,chip,tablet,,,,7,,,,,,1,True,True,0.423135805458718,3,Correct,999.0,999.0,0.21780469111489453,0.19748713078264873
194,2715,861.699999988079,<h1>quiche</h1><br><br><br> Please press space as soon as you recall the target.,32,14,9,CuePresentation,True,True,1,,,True,8_8_2023_9_10_3,1es7mkttar25fxg,html-keyboard-response,233,425676,0.0-233.0,pasta,quiche,pasta,,,,5,,,,,,1,True,True,1.00000006075905,5,Correct,999.0,999.0,0.25817148750653396,0.2296396193045141
195,2717,4759.60000002384,<h1>blind</h1><br><br><br> Please press space as soon as you recall the target.,32,14,10,CuePresentation,False,True,1,,,True,8_8_2023_9_10_3,1es7mkttar25fxg,html-keyboard-response,237,434017,0.0-237.0,,blind,switch,,,,2,,,,,,0,True,True,0.252173754849272,2,Omission,999.0,999.0,0.0883975885703406,0.20625873685492008
196,2851,4901.19999998808,<h1>moth</h1><br><br><br> Please press space as soon as you recall the target.,32,24,1,CuePresentation,False,True,2,,,True,8_8_2023_9_10_3,1es7mkttar25fxg,html-keyboard-response,521,968229,0.0-521.0,linen,moth,fungus,,,,16,,,,,,0,False,True,0.421186232744235,3,Intrusion,0.16864984236867864,0.10311209533274379,0.18816026078239542,0.19349395468968061
197,2853,6612.69999998808,<h1>coyote</h1><br><br><br> Please press space as soon as you recall the target.,32,24,2,CuePresentation,False,True,2,,,True,8_8_2023_9_10_3,1es7mkttar25fxg,html-keyboard-response,525,978341,0.0-525.0,0,coyote,cobra,,,,9,,,,,,0,True,True,0.579578025639824,3,Omission,999.0,999.0,0.21224991792381312,0.2906492468136275
198,2855,841.199999988079,<h1>nose</h1><br><br><br> Please press space as soon as you recall the target.,32,24,3,CuePresentation,True,True,2,,,True,8_8_2023_9_10_3,1es7mkttar25fxg,html-keyboard-response,529,981850,0.0-529.0,mouth,nose,mouth,,,,1,,,,,,1,False,True,0.661824468395778,4,Correct,999.0,999.0,0.2832163715627674,0.22867445092494323
199,2857,3393.19999998808,<h1>crane</h1><br><br><br> Please press space as soon as you recall the target.,32,24,4,CuePresentation,True,True,2,,,True,8_8_2023_9_10_3,1es7mkttar25fxg,html-keyboard-response,533,988277,0.0-533.0,barrel,crane,barrel,,,,5,,,,,,1,True,True,0.375189052412563,2,Correct,999.0,999.0,0.19687193370647996,0.23963971110320442
200,2859,765.899999976158,<h1>jersey</h1><br><br><br> Please press space as soon as you recall the target.,32,24,5,CuePresentation,True,True,2,,,True,8_8_2023_9_10_3,1es7mkttar25fxg,html-keyboard-response,537,991957,0.0-537.0,shirt,jersey,shirt,,,,17,,,,,,1,False,True,0.649010826232407,4,Correct,999.0,999.0,0.14355619871720057,0.2185275071017205
201,2861,3390.20000004768,<h1>chili</h1><br><br><br> Please press space as soon as you recall the target.,32,24,6,CuePresentation,False,True,2,,,True,8_8_2023_9_10_3,1es7mkttar25fxg,html-keyboard-response,541,998058,0.0-541.0,crayon,chili,clove,,,,22,,,,,,0,False,True,0.713132070649667,4,Intrusion,0.09681504506306583,0.09532585549711955,0.205595473317808,0.19990364354184287
202,2863,1852.0,<h1>slime</h1><br><br><br> Please press space as soon as you recall the target.,32,24,7,CuePresentation,True,True,2,,,True,8_8_2023_9_10_3,1es7mkttar25fxg,html-keyboard-response,545,1003100,0.0-545.0,possum,slime,possum,,,,3,,,,,,1,False,True,0.299240600347622,2,Correct,999.0,999.0,0.27138327435346127,0.29870461139508164
203,2865,2849.60000002384,<h1>flag</h1><br><br><br> Please press space as soon as you recall the target.,32,24,8,CuePresentation,False,True,2,,,True,8_8_2023_9_10_3,1es7mkttar25fxg,html-keyboard-response,549,1009150,0.0-549.0,0,flag,banner,,,,4,,,,,,0,True,True,0.616673037290324,4,Omission,999.0,999.0,0.17846988644092063,0.13723509169878523
204,2867,1051.89999997616,<h1>insole</h1><br><br><br> Please press space as soon as you recall the target.,32,24,9,CuePresentation,False,True,2,,,True,8_8_2023_9_10_3,1es7mkttar25fxg,html-keyboard-response,553,1012749,0.0-553.0,shoe,insole,sandal,,,,2,,,,,,0,True,True,0.854520532339466,5,Intrusion,0.9999999697989511,0.8545205323394657,0.2604702590691635,0.2155520690611817
205,2869,7129.80000001192,<h1>beard</h1><br><br><br> Please press space as soon as you recall the target.,32,24,10,CuePresentation,True,True,2,,,True,8_8_2023_9_10_3,1es7mkttar25fxg,html-keyboard-response,557,1022491,0.0-557.0,puck,beard,puck,,,,7,,,,,,1,True,True,0.158674531855931,1,Correct,999.0,999.0,0.2487467653777523,0.21719116337204247
206,2943,2970.0,<h1>chime</h1><br><br><br> Please press space as soon as you recall the target.,32,4,1,CuePresentation,True,True,3,,,True,8_8_2023_9_10_3,1es7mkttar25fxg,html-keyboard-response,681,1268138,0.0-681.0,cape,chime,cape,,,,4,,,,,,1,True,True,0.257361994057368,2,Correct,999.0,999.0,0.12777748774895328,0.10639008981775937
207,2945,969.300000011921,<h1>bonsai</h1><br><br><br> Please press space as soon as you recall the target.,32,4,2,CuePresentation,True,True,3,,,True,8_8_2023_9_10_3,1es7mkttar25fxg,html-keyboard-response,685,1271801,0.0-685.0,tulip,bonsai,tulip,,,,3,,,,,,1,False,True,0.549562972213874,3,Correct,999.0,999.0,0.1769103202567617,0.15347075511172473
208,2947,1069.69999998808,<h1>sink</h1><br><br><br> Please press space as soon as you recall the target.,32,4,3,CuePresentation,True,True,3,,,True,8_8_2023_9_10_3,1es7mkttar25fxg,html-keyboard-response,689,1277111,0.0-689.0,drain,sink,drain,,,,1,,,,,,1,False,True,0.631240283731934,4,Correct,999.0,999.0,0.21311731635399692,0.15329952466701813
209,2949,3734.89999997616,<h1>coal</h1><br><br><br> Please press space as soon as you recall the target.,32,4,4,CuePresentation,True,True,3,,,True,8_8_2023_9_10_3,1es7mkttar25fxg,html-keyboard-response,693,1283548,0.0-693.0,globe,coal,globe,,,,2,,,,,,1,True,True,0.0521687423182363,1,Correct,999.0,999.0,0.10648300352077197,0.08315146454950084
210,3089,2578.20000004768,<h1>thorn</h1><br><br><br> Please press space as soon as you recall the target.,32,26,1,CuePresentation,False,True,4,,,True,8_8_2023_9_10_3,1es7mkttar25fxg,html-keyboard-response,993,1880350,0.0-993.0,rose,thorn,prune,,,,5,,,,,,0,True,True,0.999999978936332,5,Intrusion,0.2980214731589484,0.2980214731589484,0.2452003100300735,0.23010431665194833
211,3091,1719.80000001192,<h1>root</h1><br><br><br> Please press space as soon as you recall the target.,32,26,2,CuePresentation,True,True,4,,,True,8_8_2023_9_10_3,1es7mkttar25fxg,html-keyboard-response,997,1884882,0.0-997.0,squash,root,squash,,,,26,,,,,,1,False,True,0.246029577781375,2,Correct,999.0,999.0,0.1577235010391417,0.19017494010906483
212,3093,1203.80000001192,<h1>arrow</h1><br><br><br> Please press space as soon as you recall the target.,32,26,3,CuePresentation,True,True,4,,,True,8_8_2023_9_10_3,1es7mkttar25fxg,html-keyboard-response,1001,1889567,0.0-1001.0,walrus,arrow,walrus,,,,24,,,,,,1,False,True,0.213526926688011,2,Correct,999.0,999.0,0.25175754788381915,0.1759653005554733
213,3095,1571.09999996424,<h1>powder</h1><br><br><br> Please press space as soon as you recall the target.,32,26,4,CuePresentation,True,True,4,,,True,8_8_2023_9_10_3,1es7mkttar25fxg,html-keyboard-response,1005,1894275,0.0-1005.0,floss,powder,floss,,,,19,,,,,,1,False,True,0.48735431534364,3,Correct,999.0,999.0,0.22646371680834362,0.30392354596218213
214,3097,865.199999988079,<h1>cello</h1><br><br><br> Please press space as soon as you recall the target.,32,26,5,CuePresentation,True,True,4,,,True,8_8_2023_9_10_3,1es7mkttar25fxg,html-keyboard-response,1009,1897839,0.0-1009.0,violin,cello,violin,,,,21,,,,,,1,False,True,0.808485246694099,5,Correct,999.0,999.0,0.10315319927274869,0.060625925020514886
215,3099,973.800000011921,<h1>cherry</h1><br><br><br> Please press space as soon as you recall the target.,32,26,6,CuePresentation,True,True,4,,,True,8_8_2023_9_10_3,1es7mkttar25fxg,html-keyboard-response,1013,1902915,0.0-1013.0,bedpan,cherry,bedpan,,,,4,,,,,,1,True,True,0.0764883243696982,1,Correct,999.0,999.0,0.22928085178842747,0.14069159065609457
216,3101,1909.09999996424,<h1>clay</h1><br><br><br> Please press space as soon as you recall the target.,32,26,7,CuePresentation,True,True,4,,,True,8_8_2023_9_10_3,1es7mkttar25fxg,html-keyboard-response,1017,1908064,0.0-1017.0,tick,clay,tick,,,,13,,,,,,1,False,True,0.0153055198591734,1,Correct,999.0,999.0,0.23387202438610608,0.1840397771925874
217,3103,1291.69999998808,<h1>tiara</h1><br><br><br> Please press space as soon as you recall the target.,32,26,8,CuePresentation,True,True,4,,,True,8_8_2023_9_10_3,1es7mkttar25fxg,html-keyboard-response,1021,1912078,0.0-1021.0,kilt,tiara,kilt,,,,7,,,,,,1,True,True,0.750416700964624,4,Correct,999.0,999.0,0.1679249653908984,0.2115642040448476
218,3105,5849.0,<h1>block</h1><br><br><br> Please press space as soon as you recall the target.,32,26,9,CuePresentation,False,True,4,,,True,8_8_2023_9_10_3,1es7mkttar25fxg,html-keyboard-response,1025,1920804,0.0-1025.0,0,block,kayak,,,,9,,,,,,0,True,True,0.234036216185256,2,Omission,999.0,999.0,0.14284302550172426,0.23146856599767063
219,3107,1735.59999996424,<h1>paint</h1><br><br><br> Please press space as soon as you recall the target.,32,26,10,CuePresentation,False,True,4,,,True,8_8_2023_9_10_3,1es7mkttar25fxg,html-keyboard-response,1029,1926051,0.0-1029.0,0,paint,makeup,,,,2,,,,,,0,True,True,0.505935810169567,3,Omission,999.0,999.0,0.2272615225841286,0.17690592483727316
220,3212,2890.30000001192,<h1>teepee</h1><br><br><br> Please press space as soon as you recall the target.,32,14,1,CuePresentation,True,True,1,,,True,27_8_2023_13_39_55,1q549h1ymr6ts9q,html-keyboard-response,201,394486,0.0-201.0,stove,teepee,stove,,,,14,,,,,,1,False,True,0.441684669598265,3,Correct,999.0,999.0,0.22703885412723895,0.20837390315675475
221,3214,1251.39999997616,<h1>knife</h1><br><br><br> Please press space as soon as you recall the target.,32,14,2,CuePresentation,True,True,1,,,True,27_8_2023_13_39_55,1q549h1ymr6ts9q,html-keyboard-response,205,398671,0.0-205.0,sheath,knife,sheath,,,,8,,,,,,1,False,True,0.735375776651981,4,Correct,999.0,999.0,0.22900973866733332,0.225736485340533
222,3216,945.300000011921,<h1>jersey</h1><br><br><br> Please press space as soon as you recall the target.,32,14,3,CuePresentation,False,True,1,,,True,27_8_2023_13_39_55,1q549h1ymr6ts9q,html-keyboard-response,209,402713,0.0-209.0,shrit,jersey,shirt,,,,9,,,,,,0,True,True,0.649010826232407,4,Misspelled Intrusion,999.0,999.0,0.1211319358026544,0.17193068812857265
223,3218,1523.5,<h1>puddle</h1><br><br><br> Please press space as soon as you recall the target.,32,14,4,CuePresentation,True,True,1,,,True,27_8_2023_13_39_55,1q549h1ymr6ts9q,html-keyboard-response,213,407042,0.0-213.0,sand,puddle,sand,,,,3,,,,,,1,False,True,0.676405431577326,4,Correct,999.0,999.0,0.24834034261403815,0.24536436910751946
224,3220,3360.90000000596,<h1>scoop</h1><br><br><br> Please press space as soon as you recall the target.,32,14,5,CuePresentation,False,True,1,,,True,27_8_2023_13_39_55,1q549h1ymr6ts9q,html-keyboard-response,217,414234,0.0-217.0,o,scoop,bonnet,,,,7,,,,,,0,True,True,0.295501525339056,2,unspecified,999.0,999.0,0.23299751172129926,0.22949014681665078
225,3222,3000.60000002384,<h1>beard</h1><br><br><br> Please press space as soon as you recall the target.,32,14,6,CuePresentation,True,True,1,,,True,27_8_2023_13_39_55,1q549h1ymr6ts9q,html-keyboard-response,221,419409,0.0-221.0,puck,beard,puck,,,,2,,,,,,1,True,True,0.158674531855931,1,Correct,999.0,999.0,0.2155298563081825,0.21257435103866631
226,3224,1501.0,<h1>pear</h1><br><br><br> Please press space as soon as you recall the target.,32,14,7,CuePresentation,True,True,1,,,True,27_8_2023_13_39_55,1q549h1ymr6ts9q,html-keyboard-response,225,423760,0.0-225.0,berry,pear,berry,,,,6,,,,,,1,False,True,0.83115578987111,5,Correct,999.0,999.0,0.3023431888021009,0.2831771848438126
227,3226,2047.80000001192,<h1>stump</h1><br><br><br> Please press space as soon as you recall the target.,32,14,8,CuePresentation,True,True,1,,,True,27_8_2023_13_39_55,1q549h1ymr6ts9q,html-keyboard-response,229,428979,0.0-229.0,stem,stump,stem,,,,4,,,,,,1,True,True,0.402091789020628,3,Correct,999.0,999.0,0.28133871921923664,0.18832469732952808
228,3228,1447.19999998808,<h1>grits</h1><br><br><br> Please press space as soon as you recall the target.,32,14,9,CuePresentation,True,True,1,,,True,27_8_2023_13_39_55,1q549h1ymr6ts9q,html-keyboard-response,233,434829,0.0-233.0,gravy,grits,gravy,,,,5,,,,,,1,True,True,0.999999922215502,5,Correct,999.0,999.0,0.2643432717402107,0.23604878518346872
229,3230,4019.80000001192,<h1>bonsai</h1><br><br><br> Please press space as soon as you recall the target.,32,14,10,CuePresentation,False,True,1,,,True,27_8_2023_13_39_55,1q549h1ymr6ts9q,html-keyboard-response,237,442195,0.0-237.0,o,bonsai,tulip,,,,12,,,,,,0,False,True,0.549562972213874,3,unspecified,999.0,999.0,0.2395254292874819,0.21215327433573292
230,3364,1233.0,<h1>goose</h1><br><br><br> Please press space as soon as you recall the target.,32,24,1,CuePresentation,True,True,2,,,True,27_8_2023_13_39_55,1q549h1ymr6ts9q,html-keyboard-response,521,976722,0.0-521.0,duck,goose,duck,,,,2,,,,,,1,True,True,0.626741263447438,4,Correct,999.0,999.0,0.2168572355059585,0.1786171198699659
231,3366,1155.20000001788,<h1>nose</h1><br><br><br> Please press space as soon as you recall the target.,32,24,2,CuePresentation,True,True,2,,,True,27_8_2023_13_39_55,1q549h1ymr6ts9q,html-keyboard-response,525,980463,0.0-525.0,mouth,nose,mouth,,,,14,,,,,,1,False,True,0.661824468395778,4,Correct,999.0,999.0,0.2537162131280196,0.2306225936157944
232,3368,4051.40000000596,<h1>moth</h1><br><br><br> Please press space as soon as you recall the target.,32,24,3,CuePresentation,False,True,2,,,True,27_8_2023_13_39_55,1q549h1ymr6ts9q,html-keyboard-response,529,987276,0.0-529.0,o,moth,fungus,,,,9,,,,,,0,True,True,0.421186232744235,3,unspecified,999.0,999.0,0.16504380992457374,0.19867676459990252
233,3370,3181.80000001192,<h1>juice</h1><br><br><br> Please press space as soon as you recall the target.,32,24,4,CuePresentation,True,True,2,,,True,27_8_2023_13_39_55,1q549h1ymr6ts9q,html-keyboard-response,533,992622,0.0-533.0,soda,juice,soda,,,,18,,,,,,1,False,True,0.636879768274072,4,Correct,999.0,999.0,0.20117324889141772,0.1418206925195368
234,3372,4341.69999998808,<h1>blower</h1><br><br><br> Please press space as soon as you recall the target.,32,24,5,CuePresentation,False,True,2,,,True,27_8_2023_13_39_55,1q549h1ymr6ts9q,html-keyboard-response,537,999934,0.0-537.0,o,blower,faucet,,,,23,,,,,,0,False,True,0.127666791564387,1,unspecified,999.0,999.0,0.17567853628027247,0.18432274473780244
235,3374,8139.69999998808,<h1>leash</h1><br><br><br> Please press space as soon as you recall the target.,32,24,6,CuePresentation,False,True,2,,,True,27_8_2023_13_39_55,1q549h1ymr6ts9q,html-keyboard-response,541,1010421,0.0-541.0,o,leash,drink,,,,4,,,,,,0,True,True,0.108463556475143,1,unspecified,999.0,999.0,0.14141997457219913,0.1978839647445333
236,3376,1643.29999998212,<h1>muffin</h1><br><br><br> Please press space as soon as you recall the target.,32,24,7,CuePresentation,True,True,2,,,True,27_8_2023_13_39_55,1q549h1ymr6ts9q,html-keyboard-response,545,1014357,0.0-545.0,crumb,muffin,crumb,,,,5,,,,,,1,True,True,0.999999975253751,5,Correct,999.0,999.0,0.19130043941032923,0.17372001471808102
237,3378,5309.59999999404,<h1>daisy</h1><br><br><br> Please press space as soon as you recall the target.,32,24,8,CuePresentation,False,True,2,,,True,27_8_2023_13_39_55,1q549h1ymr6ts9q,html-keyboard-response,549,1022593,0.0-549.0,o,daisy,riser,,,,7,,,,,,0,True,True,0.210706341768224,2,unspecified,999.0,999.0,0.266917060529108,0.06811901589007749
238,3380,3540.79999998212,<h1>binder</h1><br><br><br> Please press space as soon as you recall the target.,32,24,9,CuePresentation,False,True,2,,,True,27_8_2023_13_39_55,1q549h1ymr6ts9q,html-keyboard-response,553,1028773,0.0-553.0,o,binder,weed,,,,19,,,,,,0,False,True,0.193818930259629,1,unspecified,999.0,999.0,0.22780556862431375,0.18255608259566083
239,3382,1698.80000001192,<h1>leech</h1><br><br><br> Please press space as soon as you recall the target.,32,24,10,CuePresentation,True,True,2,,,True,27_8_2023_13_39_55,1q549h1ymr6ts9q,html-keyboard-response,557,1033093,0.0-557.0,worm,leech,worm,,,,17,,,,,,1,False,True,0.809647988325674,5,Correct,999.0,999.0,0.226715741428322,0.21261767596864492
240,3522,3987.79999998212,<h1>clove</h1><br><br><br> Please press space as soon as you recall the target.,32,26,1,CuePresentation,False,True,3,,,True,27_8_2023_13_39_55,1q549h1ymr6ts9q,html-keyboard-response,857,1578157,0.0-857.0,o,clove,chili,,,,16,,,,,,0,False,True,0.713132070649667,4,unspecified,999.0,999.0,0.23973039584023098,0.21062495660203184
241,3524,4239.09999999404,<h1>wrist</h1><br><br><br> Please press space as soon as you recall the target.,32,26,2,CuePresentation,False,True,3,,,True,27_8_2023_13_39_55,1q549h1ymr6ts9q,html-keyboard-response,861,1584645,0.0-861.0,mouth,wrist,knee,,,,21,,,,,,0,False,True,0.669356171840164,4,Intrusion,0.3544460853174578,0.28161006786097237,0.16158617462133384,0.09068479450937096
242,3526,3271.5,<h1>earwig</h1><br><br><br> Please press space as soon as you recall the target.,32,26,3,CuePresentation,False,True,3,,,True,27_8_2023_13_39_55,1q549h1ymr6ts9q,html-keyboard-response,865,1590847,0.0-865.0,o,earwig,walnut,,,,2,,,,,,0,True,True,0.242173377562161,2,unspecified,999.0,999.0,0.12905008925798403,0.1957308268752732
243,3528,1343.90000000596,<h1>coffee</h1><br><br><br> Please press space as soon as you recall the target.,32,26,4,CuePresentation,True,True,3,,,True,27_8_2023_13_39_55,1q549h1ymr6ts9q,html-keyboard-response,869,1594341,0.0-869.0,teabag,coffee,teabag,,,,5,,,,,,1,True,True,0.806588166583034,5,Correct,999.0,999.0,0.23635488616303454,0.1925265210934184
244,3530,1710.0,<h1>closet</h1><br><br><br> Please press space as soon as you recall the target.,32,26,5,CuePresentation,True,True,3,,,True,27_8_2023_13_39_55,1q549h1ymr6ts9q,html-keyboard-response,873,1599554,0.0-873.0,camper,closet,camper,,,,15,,,,,,1,False,True,0.336314072358579,2,Correct,999.0,999.0,0.19512461968873876,0.16106409467655286
245,3532,1319.0,<h1>makeup</h1><br><br><br> Please press space as soon as you recall the target.,32,26,6,CuePresentation,True,True,3,,,True,27_8_2023_13_39_55,1q549h1ymr6ts9q,html-keyboard-response,877,1603837,0.0-877.0,paint,makeup,paint,,,,4,,,,,,1,True,True,0.505935810169567,3,Correct,999.0,999.0,0.17051369878549794,0.21024301218107821
246,3534,2931.09999999404,<h1>branch</h1><br><br><br> Please press space as soon as you recall the target.,32,26,7,CuePresentation,False,True,3,,,True,27_8_2023_13_39_55,1q549h1ymr6ts9q,html-keyboard-response,881,1609477,0.0-881.0,o,branch,train,,,,12,,,,,,0,False,True,0.401947106568526,3,unspecified,999.0,999.0,0.11505397580302919,0.0954814393077279
247,3536,1980.90000000596,<h1>chips</h1><br><br><br> Please press space as soon as you recall the target.,32,26,8,CuePresentation,True,True,3,,,True,27_8_2023_13_39_55,1q549h1ymr6ts9q,html-keyboard-response,885,1613610,0.0-885.0,potato,chips,potato,,,,7,,,,,,1,True,True,0.603917424192587,4,Correct,999.0,999.0,0.25169914083829636,0.2584593486516409
248,3538,1275.0,<h1>sheet</h1><br><br><br> Please press space as soon as you recall the target.,32,26,9,CuePresentation,True,True,3,,,True,27_8_2023_13_39_55,1q549h1ymr6ts9q,html-keyboard-response,889,1619160,0.0-889.0,suit,sheet,suit,,,,9,,,,,,1,True,True,0.153411380957624,1,Correct,999.0,999.0,0.18559191628805752,0.15172852310775745
249,3540,4410.19999998808,<h1>melon</h1><br><br><br> Please press space as soon as you recall the target.,32,26,10,CuePresentation,False,True,3,,,True,27_8_2023_13_39_55,1q549h1ymr6ts9q,html-keyboard-response,893,1626232,0.0-893.0,o,melon,radish,,,,19,,,,,,0,False,True,0.568227410855373,3,unspecified,999.0,999.0,0.22083976865983082,0.2574536476015002
250,3614,1698.0,<h1>panda</h1><br><br><br> Please press space as soon as you recall the target.,32,4,1,CuePresentation,True,True,4,,,True,27_8_2023_13_39_55,1q549h1ymr6ts9q,html-keyboard-response,1017,1829241,0.0-1017.0,tiger,panda,tiger,,,,3,,,,,,1,False,True,1.0000000621733,5,Correct,999.0,999.0,0.31649480517506945,0.20257726234203088
251,3616,9737.59999999404,<h1>kiwi</h1><br><br><br> Please press space as soon as you recall the target.,32,4,2,CuePresentation,False,True,4,,,True,27_8_2023_13_39_55,1q549h1ymr6ts9q,html-keyboard-response,1021,1841745,0.0-1021.0,o,kiwi,apple,,,,4,,,,,,0,True,True,0.630507650883796,4,unspecified,999.0,999.0,0.38878092649544327,0.3270505553527933
252,3618,1837.5,<h1>cocoon</h1><br><br><br> Please press space as soon as you recall the target.,32,4,3,CuePresentation,False,True,4,,,True,27_8_2023_13_39_55,1q549h1ymr6ts9q,html-keyboard-response,1025,1845801,0.0-1025.0,o,cocoon,yogurt,,,,1,,,,,,0,False,True,0.135617011678999,1,unspecified,999.0,999.0,0.290381624360187,0.2765660092931632
253,3620,4909.90000000596,<h1>crayon</h1><br><br><br> Please press space as soon as you recall the target.,32,4,4,CuePresentation,False,True,4,,,True,27_8_2023_13_39_55,1q549h1ymr6ts9q,html-keyboard-response,1029,1853160,0.0-1029.0,o,crayon,poppy,,,,2,,,,,,0,True,True,0.237959707772953,2,unspecified,999.0,999.0,0.17550240142177237,0.4118463964408153
254,3719,1742.90000000014,<h1>visor</h1><br><br><br> Please press space as soon as you recall the target.,32,12,1,CuePresentation,True,True,1,,,True,12_8_2023_9_45_3,1u1x4rm6fx3toou,html-keyboard-response,185,362037,0.0-185.0,helmet,visor,helmet,,,,1,,,,,,1,False,True,1.0000000639651,5,Correct,999.0,999.0,0.22885235164701842,0.19380018290528753
255,3721,4659.09999999986,<h1>drink</h1><br><br><br> Please press space as soon as you recall the target.,32,12,2,CuePresentation,True,True,1,,,True,12_8_2023_9_45_3,1u1x4rm6fx3toou,html-keyboard-response,189,370464,0.0-189.0,leash,drink,leash,,,,2,,,,,,1,True,True,0.108463556475143,1,Correct,999.0,999.0,0.20704403825738066,0.1548239251854633
256,3723,2085.5,<h1>crane</h1><br><br><br> Please press space as soon as you recall the target.,32,12,3,CuePresentation,True,True,1,,,True,12_8_2023_9_45_3,1u1x4rm6fx3toou,html-keyboard-response,193,377930,0.0-193.0,barrel,crane,barrel,,,,11,,,,,,1,False,True,0.375189052412563,2,Correct,999.0,999.0,0.19297867168657562,0.22463172076175322
257,3725,1101.5,<h1>panda</h1><br><br><br> Please press space as soon as you recall the target.,32,12,4,CuePresentation,True,True,1,,,True,12_8_2023_9_45_3,1u1x4rm6fx3toou,html-keyboard-response,197,382674,0.0-197.0,tiger,panda,tiger,,,,3,,,,,,1,False,True,1.0000000621733,5,Correct,999.0,999.0,0.2610945263487579,0.22750791108400595
258,3727,1572.39999999991,<h1>wolf</h1><br><br><br> Please press space as soon as you recall the target.,32,12,5,CuePresentation,True,True,1,,,True,12_8_2023_9_45_3,1u1x4rm6fx3toou,html-keyboard-response,201,387740,0.0-201.0,bowtie,wolf,bowtie,,,,4,,,,,,1,True,True,0.208376515332164,2,Correct,999.0,999.0,0.22585259944714214,0.15851055657062502
259,3729,3614.19999999995,<h1>floss</h1><br><br><br> Please press space as soon as you recall the target.,32,12,6,CuePresentation,True,True,1,,,True,12_8_2023_9_45_3,1u1x4rm6fx3toou,html-keyboard-response,205,395454,0.0-205.0,powder,floss,powder,,,,9,,,,,,1,True,True,0.48735431534364,3,Correct,999.0,999.0,0.27210403741078154,0.23520957245374444
260,3731,4848.30000000005,<h1>parrot</h1><br><br><br> Please press space as soon as you recall the target.,32,12,7,CuePresentation,True,True,1,,,True,12_8_2023_9_45_3,1u1x4rm6fx3toou,html-keyboard-response,209,403986,0.0-209.0,turtle,parrot,turtle,,,,7,,,,,,1,True,True,0.65206421477411,4,Correct,999.0,999.0,0.2721040408612855,0.25487822892682155
261,3733,2516.90000000014,<h1>drain</h1><br><br><br> Please press space as soon as you recall the target.,32,12,8,CuePresentation,True,True,1,,,True,12_8_2023_9_45_3,1u1x4rm6fx3toou,html-keyboard-response,213,410097,0.0-213.0,sink,drain,sink,,,,12,,,,,,1,False,True,0.631240283731934,4,Correct,999.0,999.0,0.21835185723320052,0.18894085787062886
262,3735,2281.30000000005,<h1>clove</h1><br><br><br> Please press space as soon as you recall the target.,32,12,9,CuePresentation,True,True,1,,,True,12_8_2023_9_45_3,1u1x4rm6fx3toou,html-keyboard-response,217,417514,0.0-217.0,chili,clove,chili,,,,6,,,,,,1,False,True,0.713132070649667,4,Correct,999.0,999.0,0.2449216610671579,0.22468120013524914
263,3737,1929.0,<h1>gravy</h1><br><br><br> Please press space as soon as you recall the target.,32,12,10,CuePresentation,True,True,1,,,True,12_8_2023_9_45_3,1u1x4rm6fx3toou,html-keyboard-response,221,423577,0.0-221.0,grits,gravy,grits,,,,5,,,,,,1,True,True,0.999999922215502,5,Correct,999.0,999.0,0.2643292290816449,0.23088965212101506
264,3865,3567.39999999991,<h1>coyote</h1><br><br><br> Please press space as soon as you recall the target.,32,22,1,CuePresentation,True,True,2,,,True,12_8_2023_9_45_3,1u1x4rm6fx3toou,html-keyboard-response,489,908802,0.0-489.0,cobra,coyote,cobra,,,,21,,,,,,1,False,True,0.579578025639824,3,Correct,999.0,999.0,0.1644526709147357,0.24813355252394556
265,3867,768.800000000047,<h1>violin</h1><br><br><br> Please press space as soon as you recall the target.,32,22,2,CuePresentation,True,True,2,,,True,12_8_2023_9_45_3,1u1x4rm6fx3toou,html-keyboard-response,493,913467,0.0-493.0,cello,violin,cello,,,,5,,,,,,1,True,True,0.808485246694099,5,Correct,999.0,999.0,0.06298052257770406,0.07294325189845481
266,3869,6823.0,<h1>sand</h1><br><br><br> Please press space as soon as you recall the target.,32,22,3,CuePresentation,True,True,2,,,True,12_8_2023_9_45_3,1u1x4rm6fx3toou,html-keyboard-response,497,923851,0.0-497.0,puddle,sand,puddle,,,,4,,,,,,1,True,True,0.676405431577326,4,Correct,999.0,999.0,0.2432632064865933,0.21876634450817775
267,3871,1725.79999999981,<h1>chisel</h1><br><br><br> Please press space as soon as you recall the target.,32,22,4,CuePresentation,True,True,2,,,True,12_8_2023_9_45_3,1u1x4rm6fx3toou,html-keyboard-response,501,929439,0.0-501.0,spool,chisel,spool,,,,9,,,,,,1,True,True,0.561989970663317,3,Correct,999.0,999.0,0.2750916858645073,0.2911725876611823
268,3873,3509.19999999995,<h1>alpaca</h1><br><br><br> Please press space as soon as you recall the target.,32,22,5,CuePresentation,True,True,2,,,True,12_8_2023_9_45_3,1u1x4rm6fx3toou,html-keyboard-response,505,936683,0.0-505.0,yarn,alpaca,yarn,,,,3,,,,,,1,False,True,0.730008656413105,4,Correct,999.0,999.0,0.22798618138450194,0.21083294154887378
269,3875,13237.2,<h1>wire</h1><br><br><br> Please press space as soon as you recall the target.,32,22,6,CuePresentation,True,True,2,,,True,12_8_2023_9_45_3,1u1x4rm6fx3toou,html-keyboard-response,509,953760,0.0-509.0,tape,wire,tape,,,,15,,,,,,1,False,True,0.501096990479819,3,Correct,999.0,999.0,0.27342248117069995,0.21481082934859
270,3877,7501.90000000014,<h1>desk</h1><br><br><br> Please press space as soon as you recall the target.,32,22,7,CuePresentation,True,True,2,,,True,12_8_2023_9_45_3,1u1x4rm6fx3toou,html-keyboard-response,513,964718,0.0-513.0,toilet,desk,toilet,,,,13,,,,,,1,False,True,0.427165723387472,3,Correct,999.0,999.0,0.1729983205704856,0.22493983423023511
271,3879,7557.69999999995,<h1>watch</h1><br><br><br> Please press space as soon as you recall the target.,32,22,8,CuePresentation,True,True,2,,,True,12_8_2023_9_45_3,1u1x4rm6fx3toou,html-keyboard-response,517,977782,0.0-517.0,sponge,watch,sponge,,,,10,,,,,,1,False,True,0.17659200800734,1,Correct,999.0,999.0,0.1613314003810077,0.2609696640357053
272,3881,13369.2,<h1>domino</h1><br><br><br> Please press space as soon as you recall the target.,32,22,9,CuePresentation,False,True,2,,,True,12_8_2023_9_45_3,1u1x4rm6fx3toou,html-keyboard-response,521,994467,0.0-521.0,0,domino,statue,,,,2,,,,,,0,True,True,0.110843714578772,1,Omission,999.0,999.0,0.04494119752658931,0.13022394062780465
273,3883,1949.80000000005,<h1>roll</h1><br><br><br> Please press space as soon as you recall the target.,32,22,10,CuePresentation,True,True,2,,,True,12_8_2023_9_45_3,1u1x4rm6fx3toou,html-keyboard-response,525,999555,0.0-525.0,leek,roll,leek,,,,7,,,,,,1,True,True,0.228290377679196,2,Correct,999.0,999.0,0.21522918123707202,0.18688155985348626
274,4041,8057.20000000019,<h1>frame</h1><br><br><br> Please press space as soon as you recall the target.,32,32,1,CuePresentation,True,True,3,,,True,12_8_2023_9_45_3,1u1x4rm6fx3toou,html-keyboard-response,873,1661488,0.0-873.0,mast,frame,mast,,,,21,,,,,,1,False,True,0.455237418240569,3,Correct,999.0,999.0,0.24429616864989045,0.180302022887157
275,4043,1773.30000000028,<h1>fondue</h1><br><br><br> Please press space as soon as you recall the target.,32,32,2,CuePresentation,True,True,3,,,True,12_8_2023_9_45_3,1u1x4rm6fx3toou,html-keyboard-response,877,1666993,0.0-877.0,sauce,fondue,sauce,,,,9,,,,,,1,True,True,0.600478527185145,4,Correct,999.0,999.0,0.18476426787574732,0.1952022342386018
276,4045,12018.7999999998,<h1>sheet</h1><br><br><br> Please press space as soon as you recall the target.,32,32,3,CuePresentation,True,True,3,,,True,12_8_2023_9_45_3,1u1x4rm6fx3toou,html-keyboard-response,881,1682732,0.0-881.0,suit,sheet,suit,,,,29,,,,,,1,False,True,0.153411380957624,1,Correct,999.0,999.0,0.19163938831150015,0.18093665245599788
277,4047,4827.0,<h1>bird</h1><br><br><br> Please press space as soon as you recall the target.,32,32,4,CuePresentation,True,True,3,,,True,12_8_2023_9_45_3,1u1x4rm6fx3toou,html-keyboard-response,885,1691305,0.0-885.0,crow,bird,crow,,,,12,,,,,,1,False,True,0.999999881451747,5,Correct,999.0,999.0,0.22058762836595544,0.208016462993604
278,4049,1594.60000000009,<h1>teabag</h1><br><br><br> Please press space as soon as you recall the target.,32,32,5,CuePresentation,True,True,3,,,True,12_8_2023_9_45_3,1u1x4rm6fx3toou,html-keyboard-response,889,1696400,0.0-889.0,coffee,teabag,coffee,,,,4,,,,,,1,True,True,0.806588166583034,5,Correct,999.0,999.0,0.17599676331366135,0.19179980322014883
279,4051,22130.1000000001,<h1>melon</h1><br><br><br> Please press space as soon as you recall the target.,32,32,6,CuePresentation,True,True,3,,,True,12_8_2023_9_45_3,1u1x4rm6fx3toou,html-keyboard-response,893,1721886,0.0-893.0,radish,melon,radish,,,,5,,,,,,1,True,True,0.568227410855373,3,Correct,999.0,999.0,0.1877884499266654,0.21729424113145915
280,4053,21778.0,<h1>lime</h1><br><br><br> Please press space as soon as you recall the target.,32,32,7,CuePresentation,False,True,3,,,True,12_8_2023_9_45_3,1u1x4rm6fx3toou,html-keyboard-response,897,1749424,0.0-897.0,0,lime,hanger,,,,7,,,,,,0,True,True,0.177170693013488,1,Omission,999.0,999.0,0.20427763881256839,0.249793292227009
281,4055,5194.80000000028,<h1>prism</h1><br><br><br> Please press space as soon as you recall the target.,32,32,8,CuePresentation,True,True,3,,,True,12_8_2023_9_45_3,1u1x4rm6fx3toou,html-keyboard-response,901,1757577,0.0-901.0,ring,prism,ring,,,,2,,,,,,1,True,True,0.359066430514316,2,Correct,999.0,999.0,0.18129089987474686,0.24366486400368328
282,4057,15678.6000000001,<h1>lamp</h1><br><br><br> Please press space as soon as you recall the target.,32,32,9,CuePresentation,True,True,3,,,True,12_8_2023_9_45_3,1u1x4rm6fx3toou,html-keyboard-response,905,1776953,0.0-905.0,candle,lamp,candle,,,,8,,,,,,1,False,True,0.698749663319853,4,Correct,999.0,999.0,0.22800493655806164,0.24957531657613405
