"subject_id","rt","responses","question_order","date","type","Phase","time_elapsed","internal_node_id","response","key_press","ListLength","Trial_index","correct","Block","word1","word2","Context","ContextLabel","Context_position","ContextSize","NoneListType","cue","target","SequenceLength","sequence","letterSeen","queriedPosition","correct_01","Gender","Age","Cheated_pairs","Cheated_letters","validity_rt","validity","RoughContextSize","Error_type"
"0p3k92ho3rvaqpe",2.05739999997616,NA,NA,"21_5_2024_9_51_40",NA,"CuePresentation",554943,"0.0-258.0","tailor",32,20,1,"TRUE",1,NA,NA,"./images/jobs.jpg","jobs","center","16","lowSimList","valet","tailor",NA,NA,NA,18,1,"male",35,FALSE,FALSE,TRUE,TRUE,"3_large","Correct"
"0p3k92ho3rvaqpe",3.737,NA,NA,"21_5_2024_9_51_40",NA,"CuePresentation",563598,"0.0-262.0","poet",32,20,2,"TRUE",1,NA,NA,"./images/jobs.jpg","jobs","center","16","lowSimList","envoy","poet",NA,NA,NA,14,1,"male",35,FALSE,FALSE,TRUE,TRUE,"3_large","Correct"
"0p3k92ho3rvaqpe",2.56410000002384,NA,NA,"21_5_2024_9_51_40",NA,"CuePresentation",572087,"0.0-266.0","skunk",32,20,3,"TRUE",1,NA,NA,"./images/animals.jpg","animals","center","4","lowSimList","goose","skunk",NA,NA,NA,13,1,"male",35,FALSE,FALSE,TRUE,TRUE,"1_small","Correct"
"0p3k92ho3rvaqpe",4.6895,NA,NA,"21_5_2024_9_51_40",NA,"CuePresentation",580254,"0.0-270.0","diver",32,20,4,"TRUE",1,NA,NA,"./images/jobs.jpg","jobs","center","16","lowSimList","teller","diver",NA,NA,NA,2,1,"male",35,FALSE,FALSE,TRUE,TRUE,"3_large","Correct"
"0p3k92ho3rvaqpe",3.32339999997616,NA,NA,"21_5_2024_9_51_40",NA,"CuePresentation",587127,"0.0-274.0","coach",32,20,5,"TRUE",1,NA,NA,"./images/jobs.jpg","jobs","center","16","lowSimList","actor","coach",NA,NA,NA,20,1,"male",35,FALSE,FALSE,TRUE,TRUE,"3_large","Correct"
"0p3k92ho3rvaqpe",11.7873000000715,NA,NA,"21_5_2024_9_51_40",NA,"CuePresentation",604142,"0.0-278.0","porter",32,20,6,"TRUE",1,NA,NA,"./images/jobs.jpg","jobs","center","16","lowSimList","editor","porter",NA,NA,NA,10,1,"male",35,FALSE,FALSE,TRUE,TRUE,"3_large","Correct"
"0p3k92ho3rvaqpe",8.81109999990463,NA,NA,"21_5_2024_9_51_40",NA,"CuePresentation",617175,"0.0-282.0","coyote",32,20,7,"TRUE",1,NA,NA,"./images/animals.jpg","animals","center","4","lowSimList","rabbit","coyote",NA,NA,NA,15,1,"male",35,FALSE,FALSE,TRUE,TRUE,"1_small","Correct"
"0p3k92ho3rvaqpe",2.93810000002384,NA,NA,"21_5_2024_9_51_40",NA,"CuePresentation",626374,"0.0-286.0","agent",32,20,8,"TRUE",1,NA,NA,"./images/jobs.jpg","jobs","center","16","lowSimList","judge","agent",NA,NA,NA,9,1,"male",35,FALSE,FALSE,TRUE,TRUE,"3_large","Correct"
"0p3k92ho3rvaqpe",1.49820000004768,NA,NA,"21_5_2024_9_51_40",NA,"CuePresentation",631231,"0.0-290.0","doctor",32,20,9,"TRUE",1,NA,NA,"./images/jobs.jpg","jobs","center","16","lowSimList","monk","doctor",NA,NA,NA,19,1,"male",35,FALSE,FALSE,TRUE,TRUE,"3_large","Correct"
"0p3k92ho3rvaqpe",8.27510000002384,NA,NA,"21_5_2024_9_51_40",NA,"CuePresentation",644584,"0.0-294.0","teache",32,20,10,"TRUE",1,NA,NA,"./images/jobs.jpg","jobs","center","16","lowSimList","scout","teacher",NA,NA,NA,8,1,"male",35,FALSE,FALSE,TRUE,TRUE,"3_large","Correct"
"0p3k92ho3rvaqpe",3.29939999997616,NA,NA,"21_5_2024_9_51_40",NA,"CuePresentation",652526,"0.0-298.0","ranger",32,20,11,"TRUE",1,NA,NA,"./images/jobs.jpg","jobs","center","16","lowSimList","plumber","ranger",NA,NA,NA,3,1,"male",35,FALSE,FALSE,TRUE,TRUE,"3_large","Correct"
"0p3k92ho3rvaqpe",2.73310000002384,NA,NA,"21_5_2024_9_51_40",NA,"CuePresentation",658744,"0.0-302.0","singer",32,20,12,"TRUE",1,NA,NA,"./images/jobs.jpg","jobs","center","16","lowSimList","clerk","singer",NA,NA,NA,4,1,"male",35,FALSE,FALSE,TRUE,TRUE,"3_large","Correct"
"0p3k92ho3rvaqpe",11.6605,NA,NA,"21_5_2024_9_51_40",NA,"CuePresentation",673824,"0.0-306.0","buyer",32,20,13,"TRUE",1,NA,NA,"./images/jobs.jpg","jobs","center","16","lowSimList","owner","buyer",NA,NA,NA,17,1,"male",35,FALSE,FALSE,TRUE,TRUE,"3_large","Correct"
"0p3k92ho3rvaqpe",1.81080000007153,NA,NA,"21_5_2024_9_51_40",NA,"CuePresentation",679159,"0.0-310.0","pilot",32,20,14,"TRUE",1,NA,NA,"./images/jobs.jpg","jobs","center","16","lowSimList","chef","pilot",NA,NA,NA,6,1,"male",35,FALSE,FALSE,TRUE,TRUE,"3_large","Correct"
"0p3k92ho3rvaqpe",2.44740000009537,NA,NA,"21_5_2024_9_51_40",NA,"CuePresentation",685024,"0.0-314.0","donkey",32,20,15,"TRUE",1,NA,NA,"./images/animals.jpg","animals","center","4","lowSimList","bison","donkey",NA,NA,NA,11,1,"male",35,FALSE,FALSE,TRUE,TRUE,"1_small","Correct"
"0p3k92ho3rvaqpe",3.026,NA,NA,"21_5_2024_9_51_40",NA,"CuePresentation",693151,"0.0-318.0","medic",32,20,16,"TRUE",1,NA,NA,"./images/jobs.jpg","jobs","center","16","lowSimList","miner","medic",NA,NA,NA,5,1,"male",35,FALSE,FALSE,TRUE,TRUE,"3_large","Correct"
"0p3k92ho3rvaqpe",2.51589999997616,NA,NA,"21_5_2024_9_51_40",NA,"CuePresentation",699472,"0.0-322.0","barber",32,20,17,"TRUE",1,NA,NA,"./images/jobs.jpg","jobs","center","16","lowSimList","janitor","barber",NA,NA,NA,1,1,"male",35,FALSE,FALSE,TRUE,TRUE,"3_large","Correct"
"0p3k92ho3rvaqpe",2.74620000004768,NA,NA,"21_5_2024_9_51_40",NA,"CuePresentation",706750,"0.0-326.0","zebra",32,20,18,"TRUE",1,NA,NA,"./images/animals.jpg","animals","center","4","lowSimList","toad","zebra",NA,NA,NA,12,1,"male",35,FALSE,FALSE,TRUE,TRUE,"1_small","Correct"
"0p3k92ho3rvaqpe",9.77289999997616,NA,NA,"21_5_2024_9_51_40",NA,"CuePresentation",721216,"0.0-330.0","0",32,20,19,"FALSE",1,NA,NA,"./images/jobs.jpg","jobs","center","16","lowSimList","coder","lawyer",NA,NA,NA,7,0,"male",35,FALSE,FALSE,TRUE,TRUE,"3_large","Omission"
"0p3k92ho3rvaqpe",6.59589999997616,NA,NA,"21_5_2024_9_51_40",NA,"CuePresentation",730831,"0.0-334.0","tutor",32,20,20,"TRUE",1,NA,NA,"./images/jobs.jpg","jobs","center","16","lowSimList","smith","tutor",NA,NA,NA,16,1,"male",35,FALSE,FALSE,TRUE,TRUE,"3_large","Correct"
"0p3k92ho3rvaqpe",24.4381000000238,NA,NA,"21_5_2024_9_51_40",NA,"CuePresentation",1341768,"0.0-588.0","kuwaut",32,20,1,"TRUE",2,NA,NA,"./images/countries.jpg","countries","center","9","lowSimList","tonga","kuwait",NA,NA,NA,16,1,"male",35,FALSE,FALSE,TRUE,TRUE,"2_medium","Correct"
"0p3k92ho3rvaqpe",2.96259999990463,NA,NA,"21_5_2024_9_51_40",NA,"CuePresentation",1348704,"0.0-592.0","curtain",32,20,2,"TRUE",2,NA,NA,"./images/furniature.jpg","furniature","center","11","lowSimList","futon","curtain",NA,NA,NA,6,1,"male",35,FALSE,FALSE,TRUE,TRUE,"2_medium","Correct"
"0p3k92ho3rvaqpe",5.5385,NA,NA,"21_5_2024_9_51_40",NA,"CuePresentation",1358616,"0.0-596.0","couch",32,20,3,"TRUE",2,NA,NA,"./images/furniature.jpg","furniature","center","11","lowSimList","shelf","couch",NA,NA,NA,17,1,"male",35,FALSE,FALSE,TRUE,TRUE,"2_medium","Correct"
"0p3k92ho3rvaqpe",4.35429999995232,NA,NA,"21_5_2024_9_51_40",NA,"CuePresentation",1366462,"0.0-600.0","drawer",32,20,4,"TRUE",2,NA,NA,"./images/furniature.jpg","furniature","center","11","lowSimList","armchair","drawer",NA,NA,NA,18,1,"male",35,FALSE,FALSE,TRUE,TRUE,"2_medium","Correct"
"0p3k92ho3rvaqpe",1.89079999995232,NA,NA,"21_5_2024_9_51_40",NA,"CuePresentation",1374695,"0.0-604.0","canada",32,20,5,"TRUE",2,NA,NA,"./images/countries.jpg","countries","center","9","lowSimList","togo","canada",NA,NA,NA,19,1,"male",35,FALSE,FALSE,TRUE,TRUE,"2_medium","Correct"
"0p3k92ho3rvaqpe",1.1875,NA,NA,"21_5_2024_9_51_40",NA,"CuePresentation",1380360,"0.0-608.0","0",32,20,6,"FALSE",2,NA,NA,"./images/furniature.jpg","furniature","center","11","lowSimList","hanger","divan",NA,NA,NA,14,0,"male",35,FALSE,FALSE,TRUE,TRUE,"2_medium","Omission"
"0p3k92ho3rvaqpe",4.01879999995232,NA,NA,"21_5_2024_9_51_40",NA,"CuePresentation",1390344,"0.0-612.0","bench",32,20,7,"TRUE",2,NA,NA,"./images/furniature.jpg","furniature","center","11","lowSimList","trolley","bench",NA,NA,NA,8,1,"male",35,FALSE,FALSE,TRUE,TRUE,"2_medium","Correct"
"0p3k92ho3rvaqpe",3.73160000002384,NA,NA,"21_5_2024_9_51_40",NA,"CuePresentation",1397936,"0.0-616.0","latvia",32,20,8,"TRUE",2,NA,NA,"./images/countries.jpg","countries","center","9","lowSimList","tunisia","latvia",NA,NA,NA,10,1,"male",35,FALSE,FALSE,TRUE,TRUE,"2_medium","Correct"
"0p3k92ho3rvaqpe",2.28989999997616,NA,NA,"21_5_2024_9_51_40",NA,"CuePresentation",1404648,"0.0-620.0","ottoman",32,20,9,"TRUE",2,NA,NA,"./images/furniature.jpg","furniature","center","11","lowSimList","recliner","ottoman",NA,NA,NA,9,1,"male",35,FALSE,FALSE,TRUE,TRUE,"2_medium","Correct"
"0p3k92ho3rvaqpe",6.07939999997616,NA,NA,"21_5_2024_9_51_40",NA,"CuePresentation",1415016,"0.0-624.0","dresser",32,20,10,"TRUE",2,NA,NA,"./images/furniature.jpg","furniature","center","11","lowSimList","buffet","dresser",NA,NA,NA,15,1,"male",35,FALSE,FALSE,TRUE,TRUE,"2_medium","Correct"
"0p3k92ho3rvaqpe",1.45259999990463,NA,NA,"21_5_2024_9_51_40",NA,"CuePresentation",1420784,"0.0-628.0","stand",32,20,11,"TRUE",2,NA,NA,"./images/furniature.jpg","furniature","center","11","lowSimList","chest","stand",NA,NA,NA,12,1,"male",35,FALSE,FALSE,TRUE,TRUE,"2_medium","Correct"
"0p3k92ho3rvaqpe",1.64360000002384,NA,NA,"21_5_2024_9_51_40",NA,"CuePresentation",1425960,"0.0-632.0","uganda",32,20,12,"TRUE",2,NA,NA,"./images/countries.jpg","countries","center","9","lowSimList","brazil","uganda",NA,NA,NA,20,1,"male",35,FALSE,FALSE,TRUE,TRUE,"2_medium","Correct"
"0p3k92ho3rvaqpe",1.793,NA,NA,"21_5_2024_9_51_40",NA,"CuePresentation",1432208,"0.0-636.0","serbia",32,20,13,"TRUE",2,NA,NA,"./images/countries.jpg","countries","center","9","lowSimList","sierra","serbia",NA,NA,NA,7,1,"male",35,FALSE,FALSE,TRUE,TRUE,"2_medium","Correct"
"0p3k92ho3rvaqpe",3.667,NA,NA,"21_5_2024_9_51_40",NA,"CuePresentation",1439784,"0.0-640.0","rocker",32,20,14,"TRUE",2,NA,NA,"./images/furniature.jpg","furniature","center","11","lowSimList","loveseat","rocker",NA,NA,NA,5,1,"male",35,FALSE,FALSE,TRUE,TRUE,"2_medium","Correct"
"0p3k92ho3rvaqpe",3.15559999990463,NA,NA,"21_5_2024_9_51_40",NA,"CuePresentation",1447144,"0.0-644.0","0",32,20,15,"FALSE",2,NA,NA,"./images/furniature.jpg","furniature","center","11","lowSimList","table","armoire",NA,NA,NA,2,0,"male",35,FALSE,FALSE,TRUE,TRUE,"2_medium","Omission"
"0p3k92ho3rvaqpe",4.50789999997616,NA,NA,"21_5_2024_9_51_40",NA,"CuePresentation",1456136,"0.0-648.0","israel",32,20,16,"TRUE",2,NA,NA,"./images/countries.jpg","countries","center","9","lowSimList","zambia","israel",NA,NA,NA,1,1,"male",35,FALSE,FALSE,TRUE,TRUE,"2_medium","Correct"
"0p3k92ho3rvaqpe",2.194,NA,NA,"21_5_2024_9_51_40",NA,"CuePresentation",1464552,"0.0-652.0","CONGO",32,20,17,"FALSE",2,NA,NA,"./images/countries.jpg","countries","center","9","lowSimList","germany","congo",NA,NA,NA,13,0,"male",35,FALSE,FALSE,TRUE,TRUE,"2_medium","Correct (missed)"
"0p3k92ho3rvaqpe",4.19460000002384,NA,NA,"21_5_2024_9_51_40",NA,"CuePresentation",1472912,"0.0-656.0","italy",32,20,18,"TRUE",2,NA,NA,"./images/countries.jpg","countries","center","9","lowSimList","ghana","italy",NA,NA,NA,3,1,"male",35,FALSE,FALSE,TRUE,TRUE,"2_medium","Correct"
"0p3k92ho3rvaqpe",6.15260000002384,NA,NA,"21_5_2024_9_51_40",NA,"CuePresentation",1483111,"0.0-660.0","0",32,20,19,"FALSE",2,NA,NA,"./images/furniature.jpg","furniature","center","11","lowSimList","hutch","pouffe",NA,NA,NA,4,0,"male",35,FALSE,FALSE,TRUE,TRUE,"2_medium","Omission"
"0p3k92ho3rvaqpe",6.94779999995232,NA,NA,"21_5_2024_9_51_40",NA,"CuePresentation",1494112,"0.0-664.0","angola",32,20,20,"TRUE",2,NA,NA,"./images/countries.jpg","countries","center","9","lowSimList","yemen","angola",NA,NA,NA,11,1,"male",35,FALSE,FALSE,TRUE,TRUE,"2_medium","Correct"
"0p3k92ho3rvaqpe",6.77929999995232,NA,NA,"21_5_2024_9_51_40",NA,"CuePresentation",2091576,"0.0-918.0","gold",32,20,1,"TRUE",3,NA,NA,"./images/colors.jpg","colors","center","18","lowSimList","plum","gold",NA,NA,NA,10,1,"male",35,FALSE,FALSE,TRUE,TRUE,"3_large","Correct"
"0p3k92ho3rvaqpe",3.61,NA,NA,"21_5_2024_9_51_40",NA,"CuePresentation",2099384,"0.0-922.0","pink",32,20,2,"TRUE",3,NA,NA,"./images/colors.jpg","colors","center","18","lowSimList","maroon","pink",NA,NA,NA,6,1,"male",35,FALSE,FALSE,TRUE,TRUE,"3_large","Correct"
"0p3k92ho3rvaqpe",1.79319999992847,NA,NA,"21_5_2024_9_51_40",NA,"CuePresentation",2104552,"0.0-926.0","rose",32,20,3,"TRUE",3,NA,NA,"./images/colors.jpg","colors","center","18","lowSimList","jade","rose",NA,NA,NA,18,1,"male",35,FALSE,FALSE,TRUE,TRUE,"3_large","Correct"
"0p3k92ho3rvaqpe",5.002,NA,NA,"21_5_2024_9_51_40",NA,"CuePresentation",2113440,"0.0-930.0","brown",32,20,4,"TRUE",3,NA,NA,"./images/colors.jpg","colors","center","18","lowSimList","teal","brown",NA,NA,NA,8,1,"male",35,FALSE,FALSE,TRUE,TRUE,"3_large","Correct"
"0p3k92ho3rvaqpe",6.47329999995232,NA,NA,"21_5_2024_9_51_40",NA,"CuePresentation",2123359,"0.0-934.0","sable",32,20,5,"TRUE",3,NA,NA,"./images/colors.jpg","colors","center","18","lowSimList","peach","sable",NA,NA,NA,11,1,"male",35,FALSE,FALSE,TRUE,TRUE,"3_large","Correct"
"0p3k92ho3rvaqpe",1.77130000007153,NA,NA,"21_5_2024_9_51_40",NA,"CuePresentation",2128664,"0.0-938.0","orange",32,20,6,"TRUE",3,NA,NA,"./images/colors.jpg","colors","center","18","lowSimList","blue","orange",NA,NA,NA,16,1,"male",35,FALSE,FALSE,TRUE,TRUE,"3_large","Correct"
"0p3k92ho3rvaqpe",2.47479999995232,NA,NA,"21_5_2024_9_51_40",NA,"CuePresentation",2134680,"0.0-942.0","karate",32,20,7,"TRUE",3,NA,NA,"./images/sports.jpg","sports","center","2","lowSimList","biking","karate",NA,NA,NA,7,1,"male",35,FALSE,FALSE,TRUE,TRUE,"1_small","Correct"
"0p3k92ho3rvaqpe",4.21860000002384,NA,NA,"21_5_2024_9_51_40",NA,"CuePresentation",2144080,"0.0-946.0","bronze",32,20,8,"TRUE",3,NA,NA,"./images/colors.jpg","colors","center","18","lowSimList","ruby","bronze",NA,NA,NA,15,1,"male",35,FALSE,FALSE,TRUE,TRUE,"3_large","Correct"
"0p3k92ho3rvaqpe",7.242,NA,NA,"21_5_2024_9_51_40",NA,"CuePresentation",2154960,"0.0-950.0","mint",32,20,9,"TRUE",3,NA,NA,"./images/colors.jpg","colors","center","18","lowSimList","olive","mint",NA,NA,NA,2,1,"male",35,FALSE,FALSE,TRUE,TRUE,"3_large","Correct"
"0p3k92ho3rvaqpe",2.36219999992847,NA,NA,"21_5_2024_9_51_40",NA,"CuePresentation",2160568,"0.0-954.0","scarlet",32,20,10,"TRUE",3,NA,NA,"./images/colors.jpg","colors","center","18","lowSimList","rust","scarlet",NA,NA,NA,9,1,"male",35,FALSE,FALSE,TRUE,TRUE,"3_large","Correct"
"0p3k92ho3rvaqpe",3.4985,NA,NA,"21_5_2024_9_51_40",NA,"CuePresentation",2168168,"0.0-958.0","lavender",32,20,11,"TRUE",3,NA,NA,"./images/colors.jpg","colors","center","18","lowSimList","sand","lavender",NA,NA,NA,4,1,"male",35,FALSE,FALSE,TRUE,TRUE,"3_large","Correct"
"0p3k92ho3rvaqpe",2.16189999997616,NA,NA,"21_5_2024_9_51_40",NA,"CuePresentation",2175184,"0.0-962.0","lilac",32,20,12,"TRUE",3,NA,NA,"./images/colors.jpg","colors","center","18","lowSimList","black","lilac",NA,NA,NA,3,1,"male",35,FALSE,FALSE,TRUE,TRUE,"3_large","Correct"
"0p3k92ho3rvaqpe",1.52260000002384,NA,NA,"21_5_2024_9_51_40",NA,"CuePresentation",2182409,"0.0-966.0","lime",32,20,13,"TRUE",3,NA,NA,"./images/colors.jpg","colors","center","18","lowSimList","aqua","lime",NA,NA,NA,19,1,"male",35,FALSE,FALSE,TRUE,TRUE,"3_large","Correct"
"0p3k92ho3rvaqpe",1.482,NA,NA,"21_5_2024_9_51_40",NA,"CuePresentation",2187128,"0.0-970.0","indigo",32,20,14,"TRUE",3,NA,NA,"./images/colors.jpg","colors","center","18","lowSimList","magenta","indigo",NA,NA,NA,13,1,"male",35,FALSE,FALSE,TRUE,TRUE,"3_large","Correct"
"0p3k92ho3rvaqpe",1.47489999997616,NA,NA,"21_5_2024_9_51_40",NA,"CuePresentation",2192136,"0.0-974.0","cricket",32,20,15,"TRUE",3,NA,NA,"./images/sports.jpg","sports","center","2","lowSimList","cycling","cricket",NA,NA,NA,5,1,"male",35,FALSE,FALSE,TRUE,TRUE,"1_small","Correct"
"0p3k92ho3rvaqpe",1.611,NA,NA,"21_5_2024_9_51_40",NA,"CuePresentation",2197248,"0.0-978.0","coral",32,20,16,"TRUE",3,NA,NA,"./images/colors.jpg","colors","center","18","lowSimList","khaki","coral",NA,NA,NA,1,1,"male",35,FALSE,FALSE,TRUE,TRUE,"3_large","Correct"
"0p3k92ho3rvaqpe",1.1635,NA,NA,"21_5_2024_9_51_40",NA,"CuePresentation",2201703,"0.0-982.0","white",32,20,17,"TRUE",3,NA,NA,"./images/colors.jpg","colors","center","18","lowSimList","sapphire","white",NA,NA,NA,20,1,"male",35,FALSE,FALSE,TRUE,TRUE,"3_large","Correct"
"0p3k92ho3rvaqpe",2.21110000002384,NA,NA,"21_5_2024_9_51_40",NA,"CuePresentation",2209464,"0.0-986.0","yellow",32,20,18,"TRUE",3,NA,NA,"./images/colors.jpg","colors","center","18","lowSimList","violet","yellow",NA,NA,NA,17,1,"male",35,FALSE,FALSE,TRUE,TRUE,"3_large","Correct"
"0p3k92ho3rvaqpe",1.523,NA,NA,"21_5_2024_9_51_40",NA,"CuePresentation",2215264,"0.0-990.0","beige",32,20,19,"TRUE",3,NA,NA,"./images/colors.jpg","colors","center","18","lowSimList","silver","beige",NA,NA,NA,12,1,"male",35,FALSE,FALSE,TRUE,TRUE,"3_large","Correct"
"0p3k92ho3rvaqpe",1.65860000002384,NA,NA,"21_5_2024_9_51_40",NA,"CuePresentation",2220080,"0.0-994.0","green",32,20,20,"TRUE",3,NA,NA,"./images/colors.jpg","colors","center","18","lowSimList","purple","green",NA,NA,NA,14,1,"male",35,FALSE,FALSE,TRUE,TRUE,"3_large","Correct"
"0p3k92ho3rvaqpe",5.347,NA,NA,"21_5_2024_9_51_40",NA,"CuePresentation",2751105,"0.0-1248.0","oven",32,20,1,"TRUE",4,NA,NA,"./images/NoneContext.jpg","None","center","None","lowSimList","office","oven",NA,NA,NA,13,1,"male",35,FALSE,FALSE,TRUE,TRUE,"0_NoneLowSim","Correct"
"0p3k92ho3rvaqpe",3.9295,NA,NA,"21_5_2024_9_51_40",NA,"CuePresentation",2759513,"0.0-1252.0","fossil",32,20,2,"TRUE",4,NA,NA,"./images/NoneContext.jpg","None","center","None","lowSimList","road","fossil",NA,NA,NA,2,1,"male",35,FALSE,FALSE,TRUE,TRUE,"0_NoneLowSim","Correct"
"0p3k92ho3rvaqpe",3.2735,NA,NA,"21_5_2024_9_51_40",NA,"CuePresentation",2766817,"0.0-1256.0","split",32,20,3,"TRUE",4,NA,NA,"./images/NoneContext.jpg","None","center","None","lowSimList","profit","split",NA,NA,NA,7,1,"male",35,FALSE,FALSE,TRUE,TRUE,"0_NoneLowSim","Correct"
"0p3k92ho3rvaqpe",2.49689999997616,NA,NA,"21_5_2024_9_51_40",NA,"CuePresentation",2773465,"0.0-1260.0","army",32,20,4,"TRUE",4,NA,NA,"./images/NoneContext.jpg","None","center","None","lowSimList","list","army",NA,NA,NA,15,1,"male",35,FALSE,FALSE,TRUE,TRUE,"0_NoneLowSim","Correct"
"0p3k92ho3rvaqpe",7.35339999997616,NA,NA,"21_5_2024_9_51_40",NA,"CuePresentation",2784800,"0.0-1264.0","nature",32,20,5,"TRUE",4,NA,NA,"./images/NoneContext.jpg","None","center","None","lowSimList","mark","nature",NA,NA,NA,10,1,"male",35,FALSE,FALSE,TRUE,TRUE,"0_NoneLowSim","Correct"
"0p3k92ho3rvaqpe",5.93730000007153,NA,NA,"21_5_2024_9_51_40",NA,"CuePresentation",2794424,"0.0-1268.0","0",32,20,6,"FALSE",4,NA,NA,"./images/NoneContext.jpg","None","center","None","lowSimList","mobile","dealer",NA,NA,NA,16,0,"male",35,FALSE,FALSE,TRUE,TRUE,"0_NoneLowSim","Omission"
"0p3k92ho3rvaqpe",3.81180000007153,NA,NA,"21_5_2024_9_51_40",NA,"CuePresentation",2801377,"0.0-1272.0","pace",32,20,7,"TRUE",4,NA,NA,"./images/NoneContext.jpg","None","center","None","lowSimList","kneepad","pace",NA,NA,NA,9,1,"male",35,FALSE,FALSE,TRUE,TRUE,"0_NoneLowSim","Correct"
"0p3k92ho3rvaqpe",3.86860000002384,NA,NA,"21_5_2024_9_51_40",NA,"CuePresentation",2809577,"0.0-1276.0","purse",32,20,8,"TRUE",4,NA,NA,"./images/NoneContext.jpg","None","center","None","lowSimList","ladder","purse",NA,NA,NA,5,1,"male",35,FALSE,FALSE,TRUE,TRUE,"0_NoneLowSim","Correct"
"0p3k92ho3rvaqpe",1.4815,NA,NA,"21_5_2024_9_51_40",NA,"CuePresentation",2815976,"0.0-1280.0","trouble",32,20,9,"TRUE",4,NA,NA,"./images/NoneContext.jpg","None","center","None","lowSimList","make","trouble",NA,NA,NA,6,1,"male",35,FALSE,FALSE,TRUE,TRUE,"0_NoneLowSim","Correct"
"0p3k92ho3rvaqpe",2.66710000002384,NA,NA,"21_5_2024_9_51_40",NA,"CuePresentation",2822689,"0.0-1284.0","mullet",32,20,10,"TRUE",4,NA,NA,"./images/NoneContext.jpg","None","center","None","lowSimList","bedroom","mullet",NA,NA,NA,8,1,"male",35,FALSE,FALSE,TRUE,TRUE,"0_NoneLowSim","Correct"
"0p3k92ho3rvaqpe",5.89980000007153,NA,NA,"21_5_2024_9_51_40",NA,"CuePresentation",2832001,"0.0-1288.0","globe",32,20,11,"TRUE",4,NA,NA,"./images/NoneContext.jpg","None","center","None","lowSimList","bonsai","globe",NA,NA,NA,19,1,"male",35,FALSE,FALSE,TRUE,TRUE,"0_NoneLowSim","Correct"
"0p3k92ho3rvaqpe",4.33760000002384,NA,NA,"21_5_2024_9_51_40",NA,"CuePresentation",2840144,"0.0-1292.0","turbine",32,20,12,"TRUE",4,NA,NA,"./images/NoneContext.jpg","None","center","None","lowSimList","spot","turbine",NA,NA,NA,4,1,"male",35,FALSE,FALSE,TRUE,TRUE,"0_NoneLowSim","Correct"
"0p3k92ho3rvaqpe",5.09980000007153,NA,NA,"21_5_2024_9_51_40",NA,"CuePresentation",2852257,"0.0-1296.0","0",32,20,13,"FALSE",4,NA,NA,"./images/NoneContext.jpg","None","center","None","lowSimList","plan","name",NA,NA,NA,14,0,"male",35,FALSE,FALSE,TRUE,TRUE,"0_NoneLowSim","Omission"
"0p3k92ho3rvaqpe",2.8265,NA,NA,"21_5_2024_9_51_40",NA,"CuePresentation",2858169,"0.0-1300.0","mouse",32,20,14,"TRUE",4,NA,NA,"./images/NoneContext.jpg","None","center","None","lowSimList","couple","mouse",NA,NA,NA,1,1,"male",35,FALSE,FALSE,TRUE,TRUE,"0_NoneLowSim","Correct"
"0p3k92ho3rvaqpe",2.63360000002384,NA,NA,"21_5_2024_9_51_40",NA,"CuePresentation",2864792,"0.0-1304.0","disk",32,20,15,"TRUE",4,NA,NA,"./images/NoneContext.jpg","None","center","None","lowSimList","hair","disk",NA,NA,NA,3,1,"male",35,FALSE,FALSE,TRUE,TRUE,"0_NoneLowSim","Correct"
"0p3k92ho3rvaqpe",1.37069999992847,NA,NA,"21_5_2024_9_51_40",NA,"CuePresentation",2869817,"0.0-1308.0","pepper",32,20,16,"FALSE",4,NA,NA,"./images/NoneContext.jpg","None","center","None","lowSimList","suit","paper",NA,NA,NA,18,0,"male",35,FALSE,FALSE,TRUE,TRUE,"0_NoneLowSim","Intrusion"
"0p3k92ho3rvaqpe",1.94639999997616,NA,NA,"21_5_2024_9_51_40",NA,"CuePresentation",2875600,"0.0-1312.0","0",32,20,17,"FALSE",4,NA,NA,"./images/NoneContext.jpg","None","center","None","lowSimList","diamond","movie",NA,NA,NA,17,0,"male",35,FALSE,FALSE,TRUE,TRUE,"0_NoneLowSim","Omission"
"0p3k92ho3rvaqpe",0.9995,NA,NA,"21_5_2024_9_51_40",NA,"CuePresentation",2879656,"0.0-1316.0","alcohol",32,20,18,"TRUE",4,NA,NA,"./images/NoneContext.jpg","None","center","None","lowSimList","exam","alcohol",NA,NA,NA,20,1,"male",35,FALSE,FALSE,TRUE,TRUE,"0_NoneLowSim","Correct"
"0p3k92ho3rvaqpe",1.57,NA,NA,"21_5_2024_9_51_40",NA,"CuePresentation",2885065,"0.0-1320.0","player",32,20,19,"TRUE",4,NA,NA,"./images/NoneContext.jpg","None","center","None","lowSimList","long","player",NA,NA,NA,12,1,"male",35,FALSE,FALSE,TRUE,TRUE,"0_NoneLowSim","Correct"
"0p3k92ho3rvaqpe",4.33719999992847,NA,NA,"21_5_2024_9_51_40",NA,"CuePresentation",2892545,"0.0-1324.0","0",32,20,20,"FALSE",4,NA,NA,"./images/NoneContext.jpg","None","center","None","lowSimList","month","message",NA,NA,NA,11,0,"male",35,FALSE,FALSE,TRUE,TRUE,"0_NoneLowSim","Omission"
"0yecx6dnqtnbw80",3.86130000000005,NA,NA,"25_5_2024_8_22_45",NA,"CuePresentation",551894,"0.0-258.0","pearl",32,20,1,"FALSE",1,NA,NA,"./images/colors.jpg","colors","center","6","highSimPairs","ruby","blue",NA,NA,NA,9,0,"female",36,FALSE,FALSE,TRUE,TRUE,"2_medium","Intrusion"
"0yecx6dnqtnbw80",3.82230000000005,NA,NA,"25_5_2024_8_22_45",NA,"CuePresentation",559154,"0.0-262.0","chaise",32,20,2,"FALSE",1,NA,NA,"./images/furniature.jpg","furniature","center","14","highSimPairs","hammock","buffet",NA,NA,NA,5,0,"female",36,FALSE,FALSE,TRUE,TRUE,"2_medium","Intrusion"
"0yecx6dnqtnbw80",1.53510000000009,NA,NA,"25_5_2024_8_22_45",NA,"CuePresentation",564632,"0.0-266.0","pink",32,20,3,"FALSE",1,NA,NA,"./images/colors.jpg","colors","center","6","highSimPairs","pearl","sand",NA,NA,NA,20,0,"female",36,FALSE,FALSE,TRUE,TRUE,"2_medium","Intrusion"
"0yecx6dnqtnbw80",1.767,NA,NA,"25_5_2024_8_22_45",NA,"CuePresentation",569404,"0.0-270.0","hammock",32,20,4,"FALSE",1,NA,NA,"./images/furniature.jpg","furniature","center","14","highSimPairs","rocker","screen",NA,NA,NA,12,0,"female",36,FALSE,FALSE,TRUE,TRUE,"2_medium","Intrusion"
"0yecx6dnqtnbw80",3.86319999999995,NA,NA,"25_5_2024_8_22_45",NA,"CuePresentation",577106,"0.0-274.0","hammock",32,20,5,"FALSE",1,NA,NA,"./images/furniature.jpg","furniature","center","14","highSimPairs","curtain","loveseat",NA,NA,NA,16,0,"female",36,FALSE,FALSE,TRUE,TRUE,"2_medium","Intrusion"
"0yecx6dnqtnbw80",5.608,NA,NA,"25_5_2024_8_22_45",NA,"CuePresentation",586473,"0.0-278.0","chaise",32,20,6,"FALSE",1,NA,NA,"./images/furniature.jpg","furniature","center","14","highSimPairs","armrest","vanity",NA,NA,NA,17,0,"female",36,FALSE,FALSE,TRUE,TRUE,"2_medium","Intrusion"
"0yecx6dnqtnbw80",5.27819999999995,NA,NA,"25_5_2024_8_22_45",NA,"CuePresentation",594862,"0.0-282.0","0",32,20,7,"FALSE",1,NA,NA,"./images/furniature.jpg","furniature","center","14","highSimPairs","pouffe","table",NA,NA,NA,14,0,"female",36,FALSE,FALSE,TRUE,TRUE,"2_medium","Omission"
"0yecx6dnqtnbw80",2.72460000000009,NA,NA,"25_5_2024_8_22_45",NA,"CuePresentation",600457,"0.0-286.0","0",32,20,8,"FALSE",1,NA,NA,"./images/furniature.jpg","furniature","center","14","highSimPairs","armchair","futon",NA,NA,NA,1,0,"female",36,FALSE,FALSE,TRUE,TRUE,"2_medium","Omission"
"0yecx6dnqtnbw80",1.98059999999986,NA,NA,"25_5_2024_8_22_45",NA,"CuePresentation",605722,"0.0-290.0","chair",32,20,9,"FALSE",1,NA,NA,"./images/furniature.jpg","furniature","center","14","highSimPairs","shelf","bench",NA,NA,NA,11,0,"female",36,FALSE,FALSE,TRUE,TRUE,"2_medium","Intrusion"
"0yecx6dnqtnbw80",6.02010000000009,NA,NA,"25_5_2024_8_22_45",NA,"CuePresentation",614938,"0.0-294.0","pearl",32,20,10,"FALSE",1,NA,NA,"./images/colors.jpg","colors","center","6","highSimPairs","teal","purple",NA,NA,NA,7,0,"female",36,FALSE,FALSE,TRUE,TRUE,"2_medium","Intrusion"
"0yecx6dnqtnbw80",1.52960000000009,NA,NA,"25_5_2024_8_22_45",NA,"CuePresentation",619918,"0.0-298.0","0",32,20,11,"FALSE",1,NA,NA,"./images/furniature.jpg","furniature","center","14","highSimPairs","crate","drawer",NA,NA,NA,19,0,"female",36,FALSE,FALSE,TRUE,TRUE,"2_medium","Omission"
"0yecx6dnqtnbw80",1.65180000000005,NA,NA,"25_5_2024_8_22_45",NA,"CuePresentation",625115,"0.0-302.0","hammock",32,20,12,"FALSE",1,NA,NA,"./images/furniature.jpg","furniature","center","14","highSimPairs","chest","armoire",NA,NA,NA,2,0,"female",36,FALSE,FALSE,TRUE,TRUE,"2_medium","Intrusion"
"0yecx6dnqtnbw80",1.50280000000005,NA,NA,"25_5_2024_8_22_45",NA,"CuePresentation",631783,"0.0-306.0","shelf",32,20,13,"FALSE",1,NA,NA,"./images/furniature.jpg","furniature","center","14","highSimPairs","bookcase","sofa",NA,NA,NA,13,0,"female",36,FALSE,FALSE,TRUE,TRUE,"2_medium","Intrusion"
"0yecx6dnqtnbw80",3.70769999999995,NA,NA,"25_5_2024_8_22_45",NA,"CuePresentation",638493,"0.0-310.0","armchair",32,20,14,"FALSE",1,NA,NA,"./images/furniature.jpg","furniature","center","14","highSimPairs","stool","trolley",NA,NA,NA,3,0,"female",36,FALSE,FALSE,TRUE,TRUE,"2_medium","Intrusion"
"0yecx6dnqtnbw80",1.12369999999995,NA,NA,"25_5_2024_8_22_45",NA,"CuePresentation",643238,"0.0-314.0","0",32,20,15,"FALSE",1,NA,NA,"./images/furniature.jpg","furniature","center","14","highSimPairs","chair","cabinet",NA,NA,NA,18,0,"female",36,FALSE,FALSE,TRUE,TRUE,"2_medium","Omission"
"0yecx6dnqtnbw80",3.39660000000009,NA,NA,"25_5_2024_8_22_45",NA,"CuePresentation",649560,"0.0-318.0","0",32,20,16,"FALSE",1,NA,NA,"./images/furniature.jpg","furniature","center","14","highSimPairs","chaise","ottoman",NA,NA,NA,10,0,"female",36,FALSE,FALSE,TRUE,TRUE,"2_medium","Omission"
"0yecx6dnqtnbw80",5.36309999999986,NA,NA,"25_5_2024_8_22_45",NA,"CuePresentation",657579,"0.0-322.0","ruby",32,20,17,"FALSE",1,NA,NA,"./images/colors.jpg","colors","center","6","highSimPairs","coral","rose",NA,NA,NA,15,0,"female",36,FALSE,FALSE,TRUE,TRUE,"2_medium","Intrusion"
"0yecx6dnqtnbw80",3.00219999999995,NA,NA,"25_5_2024_8_22_45",NA,"CuePresentation",663624,"0.0-326.0","0",32,20,18,"FALSE",1,NA,NA,"./images/colors.jpg","colors","center","6","highSimPairs","pink","peach",NA,NA,NA,4,0,"female",36,FALSE,FALSE,TRUE,TRUE,"2_medium","Omission"
"0yecx6dnqtnbw80",1.174,NA,NA,"25_5_2024_8_22_45",NA,"CuePresentation",667541,"0.0-330.0","0",32,20,19,"FALSE",1,NA,NA,"./images/furniature.jpg","furniature","center","14","highSimPairs","couch","trunk",NA,NA,NA,6,0,"female",36,FALSE,FALSE,TRUE,TRUE,"2_medium","Omission"
"0yecx6dnqtnbw80",2.09480000000005,NA,NA,"25_5_2024_8_22_45",NA,"CuePresentation",672218,"0.0-334.0","teal",32,20,20,"FALSE",1,NA,NA,"./images/colors.jpg","colors","center","6","highSimPairs","cyan","rust",NA,NA,NA,8,0,"female",36,FALSE,FALSE,TRUE,TRUE,"2_medium","Intrusion"
"0yecx6dnqtnbw80",4.84190000000014,NA,NA,"25_5_2024_8_22_45",NA,"CuePresentation",1148040,"0.0-588.0","0",32,20,1,"FALSE",2,NA,NA,"./images/sports.jpg","sports","center","18","highSimPairs","darts","sailing",NA,NA,NA,6,0,"female",36,FALSE,FALSE,TRUE,TRUE,"3_large","Omission"
"0yecx6dnqtnbw80",6.03960000000009,NA,NA,"25_5_2024_8_22_45",NA,"CuePresentation",1156825,"0.0-592.0","baseball",32,20,2,"TRUE",2,NA,NA,"./images/sports.jpg","sports","center","18","highSimPairs","boxing","baseball",NA,NA,NA,17,1,"female",36,FALSE,FALSE,TRUE,TRUE,"3_large","Correct"
"0yecx6dnqtnbw80",3.12469999999995,NA,NA,"25_5_2024_8_22_45",NA,"CuePresentation",1163643,"0.0-596.0","lacrosee",32,20,3,"FALSE",2,NA,NA,"./images/sports.jpg","sports","center","18","highSimPairs","judo","hockey",NA,NA,NA,8,0,"female",36,FALSE,FALSE,TRUE,TRUE,"3_large","Misspelled Intrusion"
"0yecx6dnqtnbw80",3.32620000000019,NA,NA,"25_5_2024_8_22_45",NA,"CuePresentation",1171419,"0.0-600.0","0",32,20,4,"FALSE",2,NA,NA,"./images/sports.jpg","sports","center","18","highSimPairs","archery","cycling",NA,NA,NA,20,0,"female",36,FALSE,FALSE,TRUE,TRUE,"3_large","Omission"
"0yecx6dnqtnbw80",1.97739999999991,NA,NA,"25_5_2024_8_22_45",NA,"CuePresentation",1176678,"0.0-604.0","lacrosse",32,20,5,"FALSE",2,NA,NA,"./images/sports.jpg","sports","center","18","highSimPairs","curling","canoe",NA,NA,NA,19,0,"female",36,FALSE,FALSE,TRUE,TRUE,"3_large","Intrusion"
"0yecx6dnqtnbw80",1.957,NA,NA,"25_5_2024_8_22_45",NA,"CuePresentation",1182763,"0.0-608.0","0",32,20,6,"FALSE",2,NA,NA,"./images/sports.jpg","sports","center","18","highSimPairs","lacrosse","karate",NA,NA,NA,2,0,"female",36,FALSE,FALSE,TRUE,TRUE,"3_large","Omission"
"0yecx6dnqtnbw80",2.55389999999991,NA,NA,"25_5_2024_8_22_45",NA,"CuePresentation",1188021,"0.0-612.0","0",32,20,7,"FALSE",2,NA,NA,"./images/sports.jpg","sports","center","18","highSimPairs","polo","jogging",NA,NA,NA,15,0,"female",36,FALSE,FALSE,TRUE,TRUE,"3_large","Omission"
"0yecx6dnqtnbw80",1.38780000000005,NA,NA,"25_5_2024_8_22_45",NA,"CuePresentation",1192462,"0.0-616.0","0",32,20,8,"FALSE",2,NA,NA,"./images/sports.jpg","sports","center","18","highSimPairs","golf","running",NA,NA,NA,14,0,"female",36,FALSE,FALSE,TRUE,TRUE,"3_large","Omission"
"0yecx6dnqtnbw80",1.46920000000019,NA,NA,"25_5_2024_8_22_45",NA,"CuePresentation",1196980,"0.0-620.0","darts",32,20,9,"FALSE",2,NA,NA,"./images/sports.jpg","sports","center","18","highSimPairs","fishing","sprint",NA,NA,NA,16,0,"female",36,FALSE,FALSE,TRUE,TRUE,"3_large","Intrusion"
"0yecx6dnqtnbw80",3.18489999999991,NA,NA,"25_5_2024_8_22_45",NA,"CuePresentation",1203138,"0.0-624.0","fencing",32,20,10,"TRUE",2,NA,NA,"./images/sports.jpg","sports","center","18","highSimPairs","football","fencing",NA,NA,NA,1,1,"female",36,FALSE,FALSE,TRUE,TRUE,"3_large","Correct"
"0yecx6dnqtnbw80",1.0715,NA,NA,"25_5_2024_8_22_45",NA,"CuePresentation",1207788,"0.0-628.0","darts",32,20,11,"FALSE",2,NA,NA,"./images/sports.jpg","sports","center","18","highSimPairs","diving","chess",NA,NA,NA,3,0,"female",36,FALSE,FALSE,TRUE,TRUE,"3_large","Intrusion"
"0yecx6dnqtnbw80",3.91270000000019,NA,NA,"25_5_2024_8_22_45",NA,"CuePresentation",1215021,"0.0-632.0","kuwait",32,20,12,"TRUE",2,NA,NA,"./images/countries.jpg","countries","center","2","highSimPairs","germany","kuwait",NA,NA,NA,7,1,"female",36,FALSE,FALSE,TRUE,TRUE,"1_small","Correct"
"0yecx6dnqtnbw80",1.15469999999995,NA,NA,"25_5_2024_8_22_45",NA,"CuePresentation",1222991,"0.0-636.0","darts",32,20,13,"FALSE",2,NA,NA,"./images/sports.jpg","sports","center","18","highSimPairs","racing","snooker",NA,NA,NA,9,0,"female",36,FALSE,FALSE,TRUE,TRUE,"3_large","Intrusion"
"0yecx6dnqtnbw80",2.23080000000005,NA,NA,"25_5_2024_8_22_45",NA,"CuePresentation",1228218,"0.0-640.0","0",32,20,14,"FALSE",2,NA,NA,"./images/sports.jpg","sports","center","18","highSimPairs","rowing","biking",NA,NA,NA,18,0,"female",36,FALSE,FALSE,TRUE,TRUE,"3_large","Omission"
"0yecx6dnqtnbw80",1.33459999999986,NA,NA,"25_5_2024_8_22_45",NA,"CuePresentation",1232274,"0.0-644.0","0",32,20,15,"FALSE",2,NA,NA,"./images/sports.jpg","sports","center","18","highSimPairs","tennis","lifting",NA,NA,NA,4,0,"female",36,FALSE,FALSE,TRUE,TRUE,"3_large","Omission"
"0yecx6dnqtnbw80",0.973699999999953,NA,NA,"25_5_2024_8_22_45",NA,"CuePresentation",1236547,"0.0-648.0","france",32,20,16,"TRUE",2,NA,NA,"./images/countries.jpg","countries","center","2","highSimPairs","japan","france",NA,NA,NA,10,1,"female",36,FALSE,FALSE,TRUE,TRUE,"1_small","Correct"
"0yecx6dnqtnbw80",5.08389999999991,NA,NA,"25_5_2024_8_22_45",NA,"CuePresentation",1244834,"0.0-652.0","0",32,20,17,"FALSE",2,NA,NA,"./images/sports.jpg","sports","center","18","highSimPairs","skiing","squash",NA,NA,NA,13,0,"female",36,FALSE,FALSE,TRUE,TRUE,"3_large","Omission"
"0yecx6dnqtnbw80",2.25180000000005,NA,NA,"25_5_2024_8_22_45",NA,"CuePresentation",1250782,"0.0-656.0","tennis",32,20,18,"FALSE",2,NA,NA,"./images/sports.jpg","sports","center","18","highSimPairs","track","kayaking",NA,NA,NA,5,0,"female",36,FALSE,FALSE,TRUE,TRUE,"3_large","Intrusion"
"0yecx6dnqtnbw80",1.46130000000005,NA,NA,"25_5_2024_8_22_45",NA,"CuePresentation",1255677,"0.0-660.0","racing",32,20,19,"FALSE",2,NA,NA,"./images/sports.jpg","sports","center","18","highSimPairs","rugby","swimming",NA,NA,NA,12,0,"female",36,FALSE,FALSE,TRUE,TRUE,"3_large","Intrusion"
"0yecx6dnqtnbw80",1.63130000000005,NA,NA,"25_5_2024_8_22_45",NA,"CuePresentation",1260623,"0.0-664.0","0",32,20,20,"FALSE",2,NA,NA,"./images/sports.jpg","sports","center","18","highSimPairs","skating","handball",NA,NA,NA,11,0,"female",36,FALSE,FALSE,TRUE,TRUE,"3_large","Omission"
"0yecx6dnqtnbw80",2.69769999999972,NA,NA,"25_5_2024_8_22_45",NA,"CuePresentation",1732908,"0.0-918.0","calm",32,20,1,"TRUE",3,NA,NA,"./images/NoneContext.jpg","None","center","None","highSimPairs","quiet","calm",NA,NA,NA,4,1,"female",36,FALSE,FALSE,TRUE,TRUE,"0_NoneHighSim","Correct"
"0yecx6dnqtnbw80",1.23380000000028,NA,NA,"25_5_2024_8_22_45",NA,"CuePresentation",1737437,"0.0-922.0","nation",32,20,2,"TRUE",3,NA,NA,"./images/NoneContext.jpg","None","center","None","highSimPairs","state","nation",NA,NA,NA,16,1,"female",36,FALSE,FALSE,TRUE,TRUE,"0_NoneHighSim","Correct"
"0yecx6dnqtnbw80",1.122,NA,NA,"25_5_2024_8_22_45",NA,"CuePresentation",1742198,"0.0-926.0","cheek",32,20,3,"TRUE",3,NA,NA,"./images/NoneContext.jpg","None","center","None","highSimPairs","tongue","cheek",NA,NA,NA,17,1,"female",36,FALSE,FALSE,TRUE,TRUE,"0_NoneHighSim","Correct"
"0yecx6dnqtnbw80",3.84019999999972,NA,NA,"25_5_2024_8_22_45",NA,"CuePresentation",1748977,"0.0-930.0","0",32,20,4,"FALSE",3,NA,NA,"./images/NoneContext.jpg","None","center","None","highSimPairs","rain","snow",NA,NA,NA,19,0,"female",36,FALSE,FALSE,TRUE,TRUE,"0_NoneHighSim","Omission"
"0yecx6dnqtnbw80",1.57980000000028,NA,NA,"25_5_2024_8_22_45",NA,"CuePresentation",1753313,"0.0-934.0","primary",32,20,5,"TRUE",3,NA,NA,"./images/NoneContext.jpg","None","center","None","highSimPairs","main","primary",NA,NA,NA,1,1,"female",36,FALSE,FALSE,TRUE,TRUE,"0_NoneHighSim","Correct"
"0yecx6dnqtnbw80",0.707700000000186,NA,NA,"25_5_2024_8_22_45",NA,"CuePresentation",1757963,"0.0-938.0","male",32,20,6,"TRUE",3,NA,NA,"./images/NoneContext.jpg","None","center","None","highSimPairs","female","male",NA,NA,NA,18,1,"female",36,FALSE,FALSE,TRUE,TRUE,"0_NoneHighSim","Correct"
"0yecx6dnqtnbw80",0.875399999999907,NA,NA,"25_5_2024_8_22_45",NA,"CuePresentation",1761792,"0.0-942.0","accident",32,20,7,"TRUE",3,NA,NA,"./images/NoneContext.jpg","None","center","None","highSimPairs","incident","accident",NA,NA,NA,15,1,"female",36,FALSE,FALSE,TRUE,TRUE,"0_NoneHighSim","Correct"
"0yecx6dnqtnbw80",1.45709999999963,NA,NA,"25_5_2024_8_22_45",NA,"CuePresentation",1766440,"0.0-946.0","pull",32,20,8,"TRUE",3,NA,NA,"./images/NoneContext.jpg","None","center","None","highSimPairs","push","pull",NA,NA,NA,9,1,"female",36,FALSE,FALSE,TRUE,TRUE,"0_NoneHighSim","Correct"
"0yecx6dnqtnbw80",0.8945,NA,NA,"25_5_2024_8_22_45",NA,"CuePresentation",1770423,"0.0-950.0","outsif",32,20,9,"TRUE",3,NA,NA,"./images/NoneContext.jpg","None","center","None","highSimPairs","inside","outside",NA,NA,NA,12,1,"female",36,FALSE,FALSE,TRUE,TRUE,"0_NoneHighSim","Correct"
"0yecx6dnqtnbw80",3.84479999999981,NA,NA,"25_5_2024_8_22_45",NA,"CuePresentation",1781289,"0.0-954.0","0",32,20,10,"FALSE",3,NA,NA,"./images/NoneContext.jpg","None","center","None","highSimPairs","client","customer",NA,NA,NA,14,0,"female",36,FALSE,FALSE,TRUE,TRUE,"0_NoneHighSim","Omission"
"0yecx6dnqtnbw80",1.53179999999981,NA,NA,"25_5_2024_8_22_45",NA,"CuePresentation",1785489,"0.0-958.0","0",32,20,11,"FALSE",3,NA,NA,"./images/NoneContext.jpg","None","center","None","highSimPairs","focus","emphasis",NA,NA,NA,2,0,"female",36,FALSE,FALSE,TRUE,TRUE,"0_NoneHighSim","Omission"
"0yecx6dnqtnbw80",1.81780000000028,NA,NA,"25_5_2024_8_22_45",NA,"CuePresentation",1790347,"0.0-962.0","0",32,20,12,"FALSE",3,NA,NA,"./images/NoneContext.jpg","None","center","None","highSimPairs","word","phrase",NA,NA,NA,3,0,"female",36,FALSE,FALSE,TRUE,TRUE,"0_NoneHighSim","Omission"
"0yecx6dnqtnbw80",1.59580000000028,NA,NA,"25_5_2024_8_22_45",NA,"CuePresentation",1794518,"0.0-966.0","",32,20,13,"FALSE",3,NA,NA,"./images/NoneContext.jpg","None","center","None","highSimPairs","range","variety",NA,NA,NA,5,0,"female",36,FALSE,FALSE,TRUE,TRUE,"0_NoneHighSim","Omission"
"0yecx6dnqtnbw80",1.147,NA,NA,"25_5_2024_8_22_45",NA,"CuePresentation",1798208,"0.0-970.0","store",32,20,14,"TRUE",3,NA,NA,"./images/NoneContext.jpg","None","center","None","highSimPairs","shop","store",NA,NA,NA,10,1,"female",36,FALSE,FALSE,TRUE,TRUE,"0_NoneHighSim","Correct"
"0yecx6dnqtnbw80",0.864899999999907,NA,NA,"25_5_2024_8_22_45",NA,"CuePresentation",1802024,"0.0-974.0","guitar",32,20,15,"TRUE",3,NA,NA,"./images/NoneContext.jpg","None","center","None","highSimPairs","piano","guitar",NA,NA,NA,13,1,"female",36,FALSE,FALSE,TRUE,TRUE,"0_NoneHighSim","Correct"
"0yecx6dnqtnbw80",1.03939999999991,NA,NA,"25_5_2024_8_22_45",NA,"CuePresentation",1806516,"0.0-978.0","mortgage",32,20,16,"TRUE",3,NA,NA,"./images/NoneContext.jpg","None","center","None","highSimPairs","loan","mortgage",NA,NA,NA,6,1,"female",36,FALSE,FALSE,TRUE,TRUE,"0_NoneHighSim","Correct"
"0yecx6dnqtnbw80",0.759700000000186,NA,NA,"25_5_2024_8_22_45",NA,"CuePresentation",1810629,"0.0-982.0","male",32,20,17,"FALSE",3,NA,NA,"./images/NoneContext.jpg","None","center","None","highSimPairs","woman","girl",NA,NA,NA,20,0,"female",36,FALSE,FALSE,TRUE,TRUE,"0_NoneHighSim","Intrusion"
"0yecx6dnqtnbw80",0.8195,NA,NA,"25_5_2024_8_22_45",NA,"CuePresentation",1815895,"0.0-986.0","trash",32,20,18,"TRUE",3,NA,NA,"./images/NoneContext.jpg","None","center","None","highSimPairs","garbage","trash",NA,NA,NA,8,1,"female",36,FALSE,FALSE,TRUE,TRUE,"0_NoneHighSim","Correct"
"0yecx6dnqtnbw80",2.28379999999981,NA,NA,"25_5_2024_8_22_45",NA,"CuePresentation",1821840,"0.0-990.0","0",32,20,19,"FALSE",3,NA,NA,"./images/NoneContext.jpg","None","center","None","highSimPairs","town","city",NA,NA,NA,7,0,"female",36,FALSE,FALSE,TRUE,TRUE,"0_NoneHighSim","Omission"
"0yecx6dnqtnbw80",0.851,NA,NA,"25_5_2024_8_22_45",NA,"CuePresentation",1825253,"0.0-994.0","welcome",32,20,20,"TRUE",3,NA,NA,"./images/NoneContext.jpg","None","center","None","highSimPairs","invite","welcome",NA,NA,NA,11,1,"female",36,FALSE,FALSE,TRUE,TRUE,"0_NoneHighSim","Correct"
"0yecx6dnqtnbw80",1.06340000000037,NA,NA,"25_5_2024_8_22_45",NA,"CuePresentation",2284905,"0.0-1248.0","painter",32,20,1,"TRUE",4,NA,NA,"./images/jobs.jpg","jobs","center","4","highSimPairs","buyer","painter",NA,NA,NA,8,1,"female",36,FALSE,FALSE,TRUE,TRUE,"1_small","Correct"
"0yecx6dnqtnbw80",2.34129999999981,NA,NA,"25_5_2024_8_22_45",NA,"CuePresentation",2291875,"0.0-1252.0","0",32,20,2,"FALSE",4,NA,NA,"./images/veggies.png","veggies","center","16","highSimPairs","chives","arugula",NA,NA,NA,3,0,"female",36,FALSE,FALSE,TRUE,TRUE,"3_large","Omission"
"0yecx6dnqtnbw80",1.18979999999981,NA,NA,"25_5_2024_8_22_45",NA,"CuePresentation",2295571,"0.0-1256.0","0",32,20,3,"FALSE",4,NA,NA,"./images/veggies.png","veggies","center","16","highSimPairs","taro","chili",NA,NA,NA,15,0,"female",36,FALSE,FALSE,TRUE,TRUE,"3_large","Omission"
"0yecx6dnqtnbw80",2.61530000000075,NA,NA,"25_5_2024_8_22_45",NA,"CuePresentation",2301189,"0.0-1260.0","0",32,20,4,"FALSE",4,NA,NA,"./images/veggies.png","veggies","center","16","highSimPairs","collard","chard",NA,NA,NA,12,0,"female",36,FALSE,FALSE,TRUE,TRUE,"3_large","Omission"
"0yecx6dnqtnbw80",2.30579999999981,NA,NA,"25_5_2024_8_22_45",NA,"CuePresentation",2306744,"0.0-1264.0","0",32,20,5,"FALSE",4,NA,NA,"./images/veggies.png","veggies","center","16","highSimPairs","broccoli","tomato",NA,NA,NA,11,0,"female",36,FALSE,FALSE,TRUE,TRUE,"3_large","Omission"
"0yecx6dnqtnbw80",2.36360000000056,NA,NA,"25_5_2024_8_22_45",NA,"CuePresentation",2312313,"0.0-1268.0","0",32,20,6,"FALSE",4,NA,NA,"./images/veggies.png","veggies","center","16","highSimPairs","fennel","radish",NA,NA,NA,20,0,"female",36,FALSE,FALSE,TRUE,TRUE,"3_large","Omission"
"0yecx6dnqtnbw80",2.28789999999944,NA,NA,"25_5_2024_8_22_45",NA,"CuePresentation",2317295,"0.0-1272.0","0",32,20,7,"FALSE",4,NA,NA,"./images/jobs.jpg","jobs","center","4","highSimPairs","lawyer","priest",NA,NA,NA,10,0,"female",36,FALSE,FALSE,TRUE,TRUE,"1_small","Omission"
"0yecx6dnqtnbw80",1.8885,NA,NA,"25_5_2024_8_22_45",NA,"CuePresentation",2321812,"0.0-1276.0","0",32,20,8,"FALSE",4,NA,NA,"./images/veggies.png","veggies","center","16","highSimPairs","eggplant","thyme",NA,NA,NA,19,0,"female",36,FALSE,FALSE,TRUE,TRUE,"3_large","Omission"
"0yecx6dnqtnbw80",2.41829999999981,NA,NA,"25_5_2024_8_22_45",NA,"CuePresentation",2326754,"0.0-1280.0","0",32,20,9,"FALSE",4,NA,NA,"./images/veggies.png","veggies","center","16","highSimPairs","lettuce","carrot",NA,NA,NA,14,0,"female",36,FALSE,FALSE,TRUE,TRUE,"3_large","Omission"
"0yecx6dnqtnbw80",1.538,NA,NA,"25_5_2024_8_22_45",NA,"CuePresentation",2330859,"0.0-1284.0","tomato",32,20,10,"FALSE",4,NA,NA,"./images/veggies.png","veggies","center","16","highSimPairs","parsnip","squash",NA,NA,NA,2,0,"female",36,FALSE,FALSE,TRUE,TRUE,"3_large","Intrusion"
"0yecx6dnqtnbw80",1.42719999999925,NA,NA,"25_5_2024_8_22_45",NA,"CuePresentation",2335737,"0.0-1288.0","0",32,20,11,"FALSE",4,NA,NA,"./images/veggies.png","veggies","center","16","highSimPairs","spinach","lentil",NA,NA,NA,5,0,"female",36,FALSE,FALSE,TRUE,TRUE,"3_large","Omission"
"0yecx6dnqtnbw80",2.30409999999963,NA,NA,"25_5_2024_8_22_45",NA,"CuePresentation",2340544,"0.0-1292.0","0",32,20,12,"FALSE",4,NA,NA,"./images/jobs.jpg","jobs","center","4","highSimPairs","barber","tutor",NA,NA,NA,6,0,"female",36,FALSE,FALSE,TRUE,TRUE,"1_small","Omission"
"0yecx6dnqtnbw80",1.63590000000037,NA,NA,"25_5_2024_8_22_45",NA,"CuePresentation",2344716,"0.0-1296.0","lentil",32,20,13,"FALSE",4,NA,NA,"./images/veggies.png","veggies","center","16","highSimPairs","onion","potato",NA,NA,NA,1,0,"female",36,FALSE,FALSE,TRUE,TRUE,"3_large","Intrusion"
"0yecx6dnqtnbw80",0.990099999999628,NA,NA,"25_5_2024_8_22_45",NA,"CuePresentation",2350232,"0.0-1300.0","0",32,20,14,"FALSE",4,NA,NA,"./images/veggies.png","veggies","center","16","highSimPairs","endive","kohlrabi",NA,NA,NA,17,0,"female",36,FALSE,FALSE,TRUE,TRUE,"3_large","Omission"
"0yecx6dnqtnbw80",1.70940000000037,NA,NA,"25_5_2024_8_22_45",NA,"CuePresentation",2354493,"0.0-1304.0","0",32,20,15,"FALSE",4,NA,NA,"./images/veggies.png","veggies","center","16","highSimPairs","celery","oregano",NA,NA,NA,9,0,"female",36,FALSE,FALSE,TRUE,TRUE,"3_large","Omission"
"0yecx6dnqtnbw80",1.0455,NA,NA,"25_5_2024_8_22_45",NA,"CuePresentation",2358084,"0.0-1308.0","0",32,20,16,"FALSE",4,NA,NA,"./images/veggies.png","veggies","center","16","highSimPairs","chicory","garlic",NA,NA,NA,7,0,"female",36,FALSE,FALSE,TRUE,TRUE,"3_large","Omission"
"0yecx6dnqtnbw80",1.37609999999963,NA,NA,"25_5_2024_8_22_45",NA,"CuePresentation",2361983,"0.0-1312.0","thyme",32,20,17,"FALSE",4,NA,NA,"./images/veggies.png","veggies","center","16","highSimPairs","rosemary","wasabi",NA,NA,NA,13,0,"female",36,FALSE,FALSE,TRUE,TRUE,"3_large","Intrusion"
"0yecx6dnqtnbw80",0.965099999999627,NA,NA,"25_5_2024_8_22_45",NA,"CuePresentation",2365992,"0.0-1316.0","0",32,20,18,"FALSE",4,NA,NA,"./images/veggies.png","veggies","center","16","highSimPairs","cilantro","ramp",NA,NA,NA,18,0,"female",36,FALSE,FALSE,TRUE,TRUE,"3_large","Omission"
"0yecx6dnqtnbw80",2.13919999999926,NA,NA,"25_5_2024_8_22_45",NA,"CuePresentation",2370643,"0.0-1320.0","0",32,20,19,"FALSE",4,NA,NA,"./images/jobs.jpg","jobs","center","4","highSimPairs","driver","poet",NA,NA,NA,4,0,"female",36,FALSE,FALSE,TRUE,TRUE,"1_small","Omission"
"0yecx6dnqtnbw80",0.978899999999441,NA,NA,"25_5_2024_8_22_45",NA,"CuePresentation",2374302,"0.0-1324.0","0",32,20,20,"FALSE",4,NA,NA,"./images/veggies.png","veggies","center","16","highSimPairs","bean","bamboo",NA,NA,NA,16,0,"female",36,FALSE,FALSE,TRUE,TRUE,"3_large","Omission"
"196l8ypg05kwqp9",2.33169999998808,NA,NA,"24_5_2024_9_45_53",NA,"CuePresentation",525011,"0.0-258.0","teacher",32,20,1,"FALSE",1,NA,NA,"./images/jobs.jpg","jobs","center","18","highSimPairs","rabbi","lawyer",NA,NA,NA,2,0,"male",31,FALSE,FALSE,TRUE,TRUE,"3_large","Intrusion"
"196l8ypg05kwqp9",4.80180000001192,NA,NA,"24_5_2024_9_45_53",NA,"CuePresentation",533483,"0.0-262.0","0",32,20,2,"FALSE",1,NA,NA,"./images/jobs.jpg","jobs","center","18","highSimPairs","jester","barber",NA,NA,NA,3,0,"male",31,FALSE,FALSE,TRUE,TRUE,"3_large","Omission"
"196l8ypg05kwqp9",18.7576000000238,NA,NA,"24_5_2024_9_45_53",NA,"CuePresentation",556689,"0.0-266.0","coach",32,20,3,"TRUE",1,NA,NA,"./images/jobs.jpg","jobs","center","18","highSimPairs","coder","coach",NA,NA,NA,20,1,"male",31,FALSE,FALSE,TRUE,TRUE,"3_large","Correct"
"196l8ypg05kwqp9",3.36129999995232,NA,NA,"24_5_2024_9_45_53",NA,"CuePresentation",563286,"0.0-270.0","farmer",32,20,4,"TRUE",1,NA,NA,"./images/jobs.jpg","jobs","center","18","highSimPairs","mayor","farmer",NA,NA,NA,15,1,"male",31,FALSE,FALSE,TRUE,TRUE,"3_large","Correct"
"196l8ypg05kwqp9",2.06739999997616,NA,NA,"24_5_2024_9_45_53",NA,"CuePresentation",569148,"0.0-274.0","archery",32,20,5,"TRUE",1,NA,NA,"./images/sports.jpg","sports","center","2","highSimPairs","jogging","archery",NA,NA,NA,13,1,"male",31,FALSE,FALSE,TRUE,TRUE,"1_small","Correct"
"196l8ypg05kwqp9",1.62589999997616,NA,NA,"24_5_2024_9_45_53",NA,"CuePresentation",574644,"0.0-278.0","judge",32,20,6,"FALSE",1,NA,NA,"./images/jobs.jpg","jobs","center","18","highSimPairs","teacher","scout",NA,NA,NA,5,0,"male",31,FALSE,FALSE,TRUE,TRUE,"3_large","Intrusion"
"196l8ypg05kwqp9",5.84470000004768,NA,NA,"24_5_2024_9_45_53",NA,"CuePresentation",583739,"0.0-282.0","rabbi",32,20,7,"FALSE",1,NA,NA,"./images/jobs.jpg","jobs","center","18","highSimPairs","usher","ranger",NA,NA,NA,16,0,"male",31,FALSE,FALSE,TRUE,TRUE,"3_large","Intrusion"
"196l8ypg05kwqp9",5.264,NA,NA,"24_5_2024_9_45_53",NA,"CuePresentation",593296,"0.0-286.0","model",32,20,8,"FALSE",1,NA,NA,"./images/jobs.jpg","jobs","center","18","highSimPairs","priest","medic",NA,NA,NA,19,0,"male",31,FALSE,FALSE,TRUE,TRUE,"3_large","Intrusion"
"196l8ypg05kwqp9",5.82580000001192,NA,NA,"24_5_2024_9_45_53",NA,"CuePresentation",603100,"0.0-290.0","writer",32,20,9,"FALSE",1,NA,NA,"./images/jobs.jpg","jobs","center","18","highSimPairs","poet","chef",NA,NA,NA,4,0,"male",31,FALSE,FALSE,TRUE,TRUE,"3_large","Intrusion"
"196l8ypg05kwqp9",5.1035,NA,NA,"24_5_2024_9_45_53",NA,"CuePresentation",612011,"0.0-294.0","dancing",32,20,10,"FALSE",1,NA,NA,"./images/sports.jpg","sports","center","2","highSimPairs","darts","karate",NA,NA,NA,17,0,"male",31,FALSE,FALSE,TRUE,TRUE,"1_small","Intrusion"
"196l8ypg05kwqp9",2.01769999998808,NA,NA,"24_5_2024_9_45_53",NA,"CuePresentation",618681,"0.0-298.0","rabbi",32,20,11,"FALSE",1,NA,NA,"./images/jobs.jpg","jobs","center","18","highSimPairs","teller","actor",NA,NA,NA,1,0,"male",31,FALSE,FALSE,TRUE,TRUE,"3_large","Intrusion"
"196l8ypg05kwqp9",5.2945,NA,NA,"24_5_2024_9_45_53",NA,"CuePresentation",627312,"0.0-302.0","jester",32,20,12,"FALSE",1,NA,NA,"./images/jobs.jpg","jobs","center","18","highSimPairs","valet","guard",NA,NA,NA,10,0,"male",31,FALSE,FALSE,TRUE,TRUE,"3_large","Intrusion"
"196l8ypg05kwqp9",2.88540000003576,NA,NA,"24_5_2024_9_45_53",NA,"CuePresentation",633400,"0.0-306.0","teacher",32,20,13,"FALSE",1,NA,NA,"./images/jobs.jpg","jobs","center","18","highSimPairs","editor","model",NA,NA,NA,6,0,"male",31,FALSE,FALSE,TRUE,TRUE,"3_large","Intrusion"
"196l8ypg05kwqp9",3.929,NA,NA,"24_5_2024_9_45_53",NA,"CuePresentation",642221,"0.0-310.0","buyer",32,20,14,"TRUE",1,NA,NA,"./images/jobs.jpg","jobs","center","18","highSimPairs","smith","buyer",NA,NA,NA,12,1,"male",31,FALSE,FALSE,TRUE,TRUE,"3_large","Correct"
"196l8ypg05kwqp9",3.20969999998808,NA,NA,"24_5_2024_9_45_53",NA,"CuePresentation",649065,"0.0-314.0","diver",32,20,15,"TRUE",1,NA,NA,"./images/jobs.jpg","jobs","center","18","highSimPairs","plumber","diver",NA,NA,NA,18,1,"male",31,FALSE,FALSE,TRUE,TRUE,"3_large","Correct"
"196l8ypg05kwqp9",3.40040000003576,NA,NA,"24_5_2024_9_45_53",NA,"CuePresentation",655349,"0.0-318.0","baker",32,20,16,"TRUE",1,NA,NA,"./images/jobs.jpg","jobs","center","18","highSimPairs","artist","baker",NA,NA,NA,14,1,"male",31,FALSE,FALSE,TRUE,TRUE,"3_large","Correct"
"196l8ypg05kwqp9",8.93880000001192,NA,NA,"24_5_2024_9_45_53",NA,"CuePresentation",667247,"0.0-322.0","rabbi",32,20,17,"FALSE",1,NA,NA,"./images/jobs.jpg","jobs","center","18","highSimPairs","porter","miner",NA,NA,NA,9,0,"male",31,FALSE,FALSE,TRUE,TRUE,"3_large","Intrusion"
"196l8ypg05kwqp9",2.50060000002384,NA,NA,"24_5_2024_9_45_53",NA,"CuePresentation",673060,"0.0-326.0","singer",32,20,18,"TRUE",1,NA,NA,"./images/jobs.jpg","jobs","center","18","highSimPairs","tailor","singer",NA,NA,NA,11,1,"male",31,FALSE,FALSE,TRUE,TRUE,"3_large","Correct"
"196l8ypg05kwqp9",1.26440000003576,NA,NA,"24_5_2024_9_45_53",NA,"CuePresentation",678775,"0.0-330.0","writer",32,20,19,"TRUE",1,NA,NA,"./images/jobs.jpg","jobs","center","18","highSimPairs","judge","writer",NA,NA,NA,8,1,"male",31,FALSE,FALSE,TRUE,TRUE,"3_large","Correct"
"196l8ypg05kwqp9",3.126,NA,NA,"24_5_2024_9_45_53",NA,"CuePresentation",685790,"0.0-334.0","teacher",32,20,20,"FALSE",1,NA,NA,"./images/jobs.jpg","jobs","center","18","highSimPairs","owner","tutor",NA,NA,NA,7,0,"male",31,FALSE,FALSE,TRUE,TRUE,"3_large","Intrusion"
"196l8ypg05kwqp9",2.43660000002384,NA,NA,"24_5_2024_9_45_53",NA,"CuePresentation",1163844,"0.0-588.0","moose",32,20,1,"TRUE",2,NA,NA,"./images/animals.jpg","animals","center","19","highSimPairs","viper","moose",NA,NA,NA,12,1,"male",31,FALSE,FALSE,TRUE,TRUE,"3_large","Correct"
"196l8ypg05kwqp9",2.82959999996424,NA,NA,"24_5_2024_9_45_53",NA,"CuePresentation",1169899,"0.0-592.0","camel",32,20,2,"TRUE",2,NA,NA,"./images/animals.jpg","animals","center","19","highSimPairs","spider","camel",NA,NA,NA,8,1,"male",31,FALSE,FALSE,TRUE,TRUE,"3_large","Correct"
"196l8ypg05kwqp9",2.755,NA,NA,"24_5_2024_9_45_53",NA,"CuePresentation",1176308,"0.0-596.0","weasel",32,20,3,"FALSE",2,NA,NA,"./images/animals.jpg","animals","center","19","highSimPairs","raccoon","snail",NA,NA,NA,7,0,"male",31,FALSE,FALSE,TRUE,TRUE,"3_large","Intrusion"
"196l8ypg05kwqp9",3.175,NA,NA,"24_5_2024_9_45_53",NA,"CuePresentation",1182938,"0.0-600.0","macaw",32,20,4,"TRUE",2,NA,NA,"./images/animals.jpg","animals","center","19","highSimPairs","koala","macaw",NA,NA,NA,19,1,"male",31,FALSE,FALSE,TRUE,TRUE,"3_large","Correct"
"196l8ypg05kwqp9",3.03339999997616,NA,NA,"24_5_2024_9_45_53",NA,"CuePresentation",1189215,"0.0-604.0","weasel",32,20,5,"TRUE",2,NA,NA,"./images/animals.jpg","animals","center","19","highSimPairs","bison","weasel",NA,NA,NA,13,1,"male",31,FALSE,FALSE,TRUE,TRUE,"3_large","Correct"
"196l8ypg05kwqp9",3.98090000003576,NA,NA,"24_5_2024_9_45_53",NA,"CuePresentation",1196446,"0.0-608.0","shark",32,20,6,"FALSE",2,NA,NA,"./images/animals.jpg","animals","center","19","highSimPairs","panda","lizard",NA,NA,NA,10,0,"male",31,FALSE,FALSE,TRUE,TRUE,"3_large","Intrusion"
"196l8ypg05kwqp9",1.86759999996424,NA,NA,"24_5_2024_9_45_53",NA,"CuePresentation",1202759,"0.0-612.0","coyote",32,20,7,"TRUE",2,NA,NA,"./images/animals.jpg","animals","center","19","highSimPairs","horse","coyote",NA,NA,NA,9,1,"male",31,FALSE,FALSE,TRUE,TRUE,"3_large","Correct"
"196l8ypg05kwqp9",3.10789999997616,NA,NA,"24_5_2024_9_45_53",NA,"CuePresentation",1209204,"0.0-616.0","goose",32,20,8,"TRUE",2,NA,NA,"./images/animals.jpg","animals","center","19","highSimPairs","pigeon","goose",NA,NA,NA,5,1,"male",31,FALSE,FALSE,TRUE,TRUE,"3_large","Correct"
"196l8ypg05kwqp9",1.92570000004768,NA,NA,"24_5_2024_9_45_53",NA,"CuePresentation",1214052,"0.0-620.0","zebra",32,20,9,"TRUE",2,NA,NA,"./images/animals.jpg","animals","center","19","highSimPairs","bear","zebra",NA,NA,NA,1,1,"male",31,FALSE,FALSE,TRUE,TRUE,"3_large","Correct"
"196l8ypg05kwqp9",2.76480000001192,NA,NA,"24_5_2024_9_45_53",NA,"CuePresentation",1219804,"0.0-624.0","otter",32,20,10,"TRUE",2,NA,NA,"./images/animals.jpg","animals","center","19","highSimPairs","wolf","otter",NA,NA,NA,14,1,"male",31,FALSE,FALSE,TRUE,TRUE,"3_large","Correct"
"196l8ypg05kwqp9",6.13390000003576,NA,NA,"24_5_2024_9_45_53",NA,"CuePresentation",1228842,"0.0-628.0","raccoon",32,20,11,"FALSE",2,NA,NA,"./images/animals.jpg","animals","center","19","highSimPairs","squid","seal",NA,NA,NA,3,0,"male",31,FALSE,FALSE,TRUE,TRUE,"3_large","Intrusion"
"196l8ypg05kwqp9",2.34419999998808,NA,NA,"24_5_2024_9_45_53",NA,"CuePresentation",1235337,"0.0-632.0","skunk",32,20,12,"TRUE",2,NA,NA,"./images/animals.jpg","animals","center","19","highSimPairs","lion","skunk",NA,NA,NA,20,1,"male",31,FALSE,FALSE,TRUE,TRUE,"3_large","Correct"
"196l8ypg05kwqp9",2.46360000002384,NA,NA,"24_5_2024_9_45_53",NA,"CuePresentation",1241234,"0.0-636.0","salmon",32,20,13,"TRUE",2,NA,NA,"./images/animals.jpg","animals","center","19","highSimPairs","gecko","salmon",NA,NA,NA,18,1,"male",31,FALSE,FALSE,TRUE,TRUE,"3_large","Correct"
"196l8ypg05kwqp9",2.0585,NA,NA,"24_5_2024_9_45_53",NA,"CuePresentation",1247166,"0.0-640.0","otter",32,20,14,"FALSE",2,NA,NA,"./images/animals.jpg","animals","center","19","highSimPairs","shark","dolphin",NA,NA,NA,15,0,"male",31,FALSE,FALSE,TRUE,TRUE,"3_large","Intrusion"
"196l8ypg05kwqp9",1.68310000002384,NA,NA,"24_5_2024_9_45_53",NA,"CuePresentation",1254588,"0.0-644.0","sofa",32,20,15,"TRUE",2,NA,NA,"./images/furniature.jpg","furniature","center","1","highSimPairs","pouffe","sofa",NA,NA,NA,6,1,"male",31,FALSE,FALSE,TRUE,TRUE,"1_small","Correct"
"196l8ypg05kwqp9",4.94039999997616,NA,NA,"24_5_2024_9_45_53",NA,"CuePresentation",1262316,"0.0-648.0","frog",32,20,16,"TRUE",2,NA,NA,"./images/animals.jpg","animals","center","19","highSimPairs","trout","frog",NA,NA,NA,16,1,"male",31,FALSE,FALSE,TRUE,TRUE,"3_large","Correct"
"196l8ypg05kwqp9",1.98359999996424,NA,NA,"24_5_2024_9_45_53",NA,"CuePresentation",1269843,"0.0-652.0","turtle",32,20,17,"TRUE",2,NA,NA,"./images/animals.jpg","animals","center","19","highSimPairs","rabbit","turtle",NA,NA,NA,17,1,"male",31,FALSE,FALSE,TRUE,TRUE,"3_large","Correct"
"196l8ypg05kwqp9",5.4255,NA,NA,"24_5_2024_9_45_53",NA,"CuePresentation",1280425,"0.0-656.0","moose",32,20,18,"FALSE",2,NA,NA,"./images/animals.jpg","animals","center","19","highSimPairs","parrot","toad",NA,NA,NA,11,0,"male",31,FALSE,FALSE,TRUE,TRUE,"3_large","Intrusion"
"196l8ypg05kwqp9",1.18060000002384,NA,NA,"24_5_2024_9_45_53",NA,"CuePresentation",1285402,"0.0-660.0","camel",32,20,19,"FALSE",2,NA,NA,"./images/animals.jpg","animals","center","19","highSimPairs","donkey","tiger",NA,NA,NA,4,0,"male",31,FALSE,FALSE,TRUE,TRUE,"3_large","Intrusion"
"196l8ypg05kwqp9",3.34619999998808,NA,NA,"24_5_2024_9_45_53",NA,"CuePresentation",1292177,"0.0-664.0","lemur",32,20,20,"TRUE",2,NA,NA,"./images/animals.jpg","animals","center","19","highSimPairs","jaguar","lemur",NA,NA,NA,2,1,"male",31,FALSE,FALSE,TRUE,TRUE,"3_large","Correct"
"196l8ypg05kwqp9",1.26,NA,NA,"24_5_2024_9_45_53",NA,"CuePresentation",1735386,"0.0-918.0","client",32,20,1,"TRUE",3,NA,NA,"./images/NoneContext.jpg","None","center","None","highSimPairs","customer","client",NA,NA,NA,9,1,"male",31,FALSE,FALSE,TRUE,TRUE,"0_NoneHighSim","Correct"
"196l8ypg05kwqp9",1.04360000002384,NA,NA,"24_5_2024_9_45_53",NA,"CuePresentation",1740306,"0.0-922.0","guitar",32,20,2,"TRUE",3,NA,NA,"./images/NoneContext.jpg","None","center","None","highSimPairs","piano","guitar",NA,NA,NA,20,1,"male",31,FALSE,FALSE,TRUE,TRUE,"0_NoneHighSim","Correct"
"196l8ypg05kwqp9",1.63159999996424,NA,NA,"24_5_2024_9_45_53",NA,"CuePresentation",1745862,"0.0-926.0","store",32,20,3,"TRUE",3,NA,NA,"./images/NoneContext.jpg","None","center","None","highSimPairs","shop","store",NA,NA,NA,16,1,"male",31,FALSE,FALSE,TRUE,TRUE,"0_NoneHighSim","Correct"
"196l8ypg05kwqp9",2.143,NA,NA,"24_5_2024_9_45_53",NA,"CuePresentation",1750967,"0.0-930.0","rain",32,20,4,"TRUE",3,NA,NA,"./images/NoneContext.jpg","None","center","None","highSimPairs","snow","rain",NA,NA,NA,19,1,"male",31,FALSE,FALSE,TRUE,TRUE,"0_NoneHighSim","Correct"
"196l8ypg05kwqp9",4.71760000002384,NA,NA,"24_5_2024_9_45_53",NA,"CuePresentation",1760850,"0.0-934.0","tongue",32,20,5,"TRUE",3,NA,NA,"./images/NoneContext.jpg","None","center","None","highSimPairs","cheek","tongue",NA,NA,NA,17,1,"male",31,FALSE,FALSE,TRUE,TRUE,"0_NoneHighSim","Correct"
"196l8ypg05kwqp9",3.02530000001192,NA,NA,"24_5_2024_9_45_53",NA,"CuePresentation",1767854,"0.0-938.0","focus",32,20,6,"TRUE",3,NA,NA,"./images/NoneContext.jpg","None","center","None","highSimPairs","emphasis","focus",NA,NA,NA,15,1,"male",31,FALSE,FALSE,TRUE,TRUE,"0_NoneHighSim","Correct"
"196l8ypg05kwqp9",0.922699999988079,NA,NA,"24_5_2024_9_45_53",NA,"CuePresentation",1771873,"0.0-942.0","girl",32,20,7,"FALSE",3,NA,NA,"./images/NoneContext.jpg","None","center","None","highSimPairs","female","male",NA,NA,NA,10,0,"male",31,FALSE,FALSE,TRUE,TRUE,"0_NoneHighSim","Intrusion"
"196l8ypg05kwqp9",4.07089999997616,NA,NA,"24_5_2024_9_45_53",NA,"CuePresentation",1778719,"0.0-946.0","main",32,20,8,"TRUE",3,NA,NA,"./images/NoneContext.jpg","None","center","None","highSimPairs","primary","main",NA,NA,NA,14,1,"male",31,FALSE,FALSE,TRUE,TRUE,"0_NoneHighSim","Correct"
"196l8ypg05kwqp9",2.82639999997616,NA,NA,"24_5_2024_9_45_53",NA,"CuePresentation",1785100,"0.0-950.0","invite",32,20,9,"TRUE",3,NA,NA,"./images/NoneContext.jpg","None","center","None","highSimPairs","welcome","invite",NA,NA,NA,4,1,"male",31,FALSE,FALSE,TRUE,TRUE,"0_NoneHighSim","Correct"
"196l8ypg05kwqp9",1.00190000003576,NA,NA,"24_5_2024_9_45_53",NA,"CuePresentation",1789110,"0.0-954.0","length",32,20,10,"TRUE",3,NA,NA,"./images/NoneContext.jpg","None","center","None","highSimPairs","height","length",NA,NA,NA,7,1,"male",31,FALSE,FALSE,TRUE,TRUE,"0_NoneHighSim","Correct"
"196l8ypg05kwqp9",0.924300000011921,NA,NA,"24_5_2024_9_45_53",NA,"CuePresentation",1793765,"0.0-958.0","pull",32,20,11,"TRUE",3,NA,NA,"./images/NoneContext.jpg","None","center","None","highSimPairs","push","pull",NA,NA,NA,6,1,"male",31,FALSE,FALSE,TRUE,TRUE,"0_NoneHighSim","Correct"
"196l8ypg05kwqp9",0.7685,NA,NA,"24_5_2024_9_45_53",NA,"CuePresentation",1798965,"0.0-962.0","outside",32,20,12,"TRUE",3,NA,NA,"./images/NoneContext.jpg","None","center","None","highSimPairs","inside","outside",NA,NA,NA,11,1,"male",31,FALSE,FALSE,TRUE,TRUE,"0_NoneHighSim","Correct"
"196l8ypg05kwqp9",1.30289999997616,NA,NA,"24_5_2024_9_45_53",NA,"CuePresentation",1803486,"0.0-966.0","stop",32,20,13,"FALSE",3,NA,NA,"./images/NoneContext.jpg","None","center","None","highSimPairs","truck","vehicle",NA,NA,NA,2,0,"male",31,FALSE,FALSE,TRUE,TRUE,"0_NoneHighSim","Intrusion"
"196l8ypg05kwqp9",4.03490000003576,NA,NA,"24_5_2024_9_45_53",NA,"CuePresentation",1811354,"0.0-970.0","debt",32,20,14,"FALSE",3,NA,NA,"./images/NoneContext.jpg","None","center","None","highSimPairs","loan","mortgage",NA,NA,NA,13,0,"male",31,FALSE,FALSE,TRUE,TRUE,"0_NoneHighSim","Intrusion"
"196l8ypg05kwqp9",1.678,NA,NA,"24_5_2024_9_45_53",NA,"CuePresentation",1816512,"0.0-974.0","town",32,20,15,"TRUE",3,NA,NA,"./images/NoneContext.jpg","None","center","None","highSimPairs","city","town",NA,NA,NA,12,1,"male",31,FALSE,FALSE,TRUE,TRUE,"0_NoneHighSim","Correct"
"196l8ypg05kwqp9",4.95360000002384,NA,NA,"24_5_2024_9_45_53",NA,"CuePresentation",1824463,"0.0-978.0","sentence",32,20,16,"FALSE",3,NA,NA,"./images/NoneContext.jpg","None","center","None","highSimPairs","word","phrase",NA,NA,NA,8,0,"male",31,FALSE,FALSE,TRUE,TRUE,"0_NoneHighSim","Intrusion"
"196l8ypg05kwqp9",1.27689999997616,NA,NA,"24_5_2024_9_45_53",NA,"CuePresentation",1829495,"0.0-982.0","woman",32,20,17,"TRUE",3,NA,NA,"./images/NoneContext.jpg","None","center","None","highSimPairs","girl","woman",NA,NA,NA,1,1,"male",31,FALSE,FALSE,TRUE,TRUE,"0_NoneHighSim","Correct"
"196l8ypg05kwqp9",1.07730000001192,NA,NA,"24_5_2024_9_45_53",NA,"CuePresentation",1833495,"0.0-986.0","variety",32,20,18,"TRUE",3,NA,NA,"./images/NoneContext.jpg","None","center","None","highSimPairs","range","variety",NA,NA,NA,5,1,"male",31,FALSE,FALSE,TRUE,TRUE,"0_NoneHighSim","Correct"
"196l8ypg05kwqp9",1.37359999996424,NA,NA,"24_5_2024_9_45_53",NA,"CuePresentation",1838446,"0.0-990.0","incident",32,20,19,"TRUE",3,NA,NA,"./images/NoneContext.jpg","None","center","None","highSimPairs","accident","incident",NA,NA,NA,3,1,"male",31,FALSE,FALSE,TRUE,TRUE,"0_NoneHighSim","Correct"
"196l8ypg05kwqp9",0.897399999976158,NA,NA,"24_5_2024_9_45_53",NA,"CuePresentation",1843126,"0.0-994.0","calm",32,20,20,"TRUE",3,NA,NA,"./images/NoneContext.jpg","None","center","None","highSimPairs","quiet","calm",NA,NA,NA,18,1,"male",31,FALSE,FALSE,TRUE,TRUE,"0_NoneHighSim","Correct"
"196l8ypg05kwqp9",3.385,NA,NA,"24_5_2024_9_45_53",NA,"CuePresentation",2283440,"0.0-1248.0","0",32,20,1,"FALSE",4,NA,NA,"./images/colors.jpg","colors","center","16","highSimPairs","maroon","blue",NA,NA,NA,17,0,"male",31,FALSE,FALSE,TRUE,TRUE,"3_large","Omission"
"196l8ypg05kwqp9",2.44430000001192,NA,NA,"24_5_2024_9_45_53",NA,"CuePresentation",2288553,"0.0-1252.0","malawi",32,20,2,"TRUE",4,NA,NA,"./images/countries.jpg","countries","center","4","highSimPairs","israel","malawi",NA,NA,NA,1,1,"male",31,FALSE,FALSE,TRUE,TRUE,"1_small","Correct"
"196l8ypg05kwqp9",4.80810000002384,NA,NA,"24_5_2024_9_45_53",NA,"CuePresentation",2297455,"0.0-1256.0","crimson",32,20,3,"FALSE",4,NA,NA,"./images/colors.jpg","colors","center","16","highSimPairs","blush","lilac",NA,NA,NA,15,0,"male",31,FALSE,FALSE,TRUE,TRUE,"3_large","Intrusion"
"196l8ypg05kwqp9",1.01019999998808,NA,NA,"24_5_2024_9_45_53",NA,"CuePresentation",2301910,"0.0-1260.0","senegal",32,20,4,"TRUE",4,NA,NA,"./images/countries.jpg","countries","center","4","highSimPairs","brazil","senegal",NA,NA,NA,10,1,"male",31,FALSE,FALSE,TRUE,TRUE,"1_small","Correct"
"196l8ypg05kwqp9",2.34569999998808,NA,NA,"24_5_2024_9_45_53",NA,"CuePresentation",2307603,"0.0-1264.0","mint",32,20,5,"FALSE",4,NA,NA,"./images/colors.jpg","colors","center","16","highSimPairs","cyan","plum",NA,NA,NA,3,0,"male",31,FALSE,FALSE,TRUE,TRUE,"3_large","Intrusion"
"196l8ypg05kwqp9",2.92380000001192,NA,NA,"24_5_2024_9_45_53",NA,"CuePresentation",2314868,"0.0-1268.0","0",32,20,6,"FALSE",4,NA,NA,"./images/colors.jpg","colors","center","16","highSimPairs","magenta","sepia",NA,NA,NA,5,0,"male",31,FALSE,FALSE,TRUE,TRUE,"3_large","Omission"
"196l8ypg05kwqp9",1.68210000002384,NA,NA,"24_5_2024_9_45_53",NA,"CuePresentation",2321184,"0.0-1272.0","khaki",32,20,7,"TRUE",4,NA,NA,"./images/colors.jpg","colors","center","16","highSimPairs","sand","khaki",NA,NA,NA,11,1,"male",31,FALSE,FALSE,TRUE,TRUE,"3_large","Correct"
"196l8ypg05kwqp9",3.63159999996424,NA,NA,"24_5_2024_9_45_53",NA,"CuePresentation",2328322,"0.0-1276.0","0",32,20,8,"FALSE",4,NA,NA,"./images/colors.jpg","colors","center","16","highSimPairs","sapphire","white",NA,NA,NA,6,0,"male",31,FALSE,FALSE,TRUE,TRUE,"3_large","Omission"
"196l8ypg05kwqp9",2.785,NA,NA,"24_5_2024_9_45_53",NA,"CuePresentation",2336944,"0.0-1280.0","olive",32,20,9,"TRUE",4,NA,NA,"./images/colors.jpg","colors","center","16","highSimPairs","purple","olive",NA,NA,NA,14,1,"male",31,FALSE,FALSE,TRUE,TRUE,"3_large","Correct"
"196l8ypg05kwqp9",1.43090000003576,NA,NA,"24_5_2024_9_45_53",NA,"CuePresentation",2341784,"0.0-1284.0","peach",32,20,10,"TRUE",4,NA,NA,"./images/colors.jpg","colors","center","16","highSimPairs","sable","peach",NA,NA,NA,19,1,"male",31,FALSE,FALSE,TRUE,TRUE,"3_large","Correct"
"196l8ypg05kwqp9",2.16780000001192,NA,NA,"24_5_2024_9_45_53",NA,"CuePresentation",2347251,"0.0-1288.0","green",32,20,11,"FALSE",4,NA,NA,"./images/colors.jpg","colors","center","16","highSimPairs","lime","bronze",NA,NA,NA,2,0,"male",31,FALSE,FALSE,TRUE,TRUE,"3_large","Intrusion"
"196l8ypg05kwqp9",3.05319999998808,NA,NA,"24_5_2024_9_45_53",NA,"CuePresentation",2353785,"0.0-1292.0","0",32,20,12,"FALSE",4,NA,NA,"./images/colors.jpg","colors","center","16","highSimPairs","pink","rust",NA,NA,NA,7,0,"male",31,FALSE,FALSE,TRUE,TRUE,"3_large","Omission"
"196l8ypg05kwqp9",1.65939999997616,NA,NA,"24_5_2024_9_45_53",NA,"CuePresentation",2359194,"0.0-1296.0","zambia",32,20,13,"TRUE",4,NA,NA,"./images/countries.jpg","countries","center","4","highSimPairs","syria","zambia",NA,NA,NA,4,1,"male",31,FALSE,FALSE,TRUE,TRUE,"1_small","Correct"
"196l8ypg05kwqp9",1.87569999998808,NA,NA,"24_5_2024_9_45_53",NA,"CuePresentation",2365117,"0.0-1300.0","blue",32,20,14,"FALSE",4,NA,NA,"./images/colors.jpg","colors","center","16","highSimPairs","teal","ruby",NA,NA,NA,13,0,"male",31,FALSE,FALSE,TRUE,TRUE,"3_large","Intrusion"
"196l8ypg05kwqp9",1.93980000001192,NA,NA,"24_5_2024_9_45_53",NA,"CuePresentation",2370811,"0.0-1304.0","lavender",32,20,15,"TRUE",4,NA,NA,"./images/colors.jpg","colors","center","16","highSimPairs","crimson","lavender",NA,NA,NA,18,1,"male",31,FALSE,FALSE,TRUE,TRUE,"3_large","Correct"
"196l8ypg05kwqp9",1.58530000001192,NA,NA,"24_5_2024_9_45_53",NA,"CuePresentation",2375932,"0.0-1308.0","poland",32,20,16,"TRUE",4,NA,NA,"./images/countries.jpg","countries","center","4","highSimPairs","fiji","poland",NA,NA,NA,8,1,"male",31,FALSE,FALSE,TRUE,TRUE,"1_small","Correct"
"196l8ypg05kwqp9",3.75830000001192,NA,NA,"24_5_2024_9_45_53",NA,"CuePresentation",2383652,"0.0-1312.0","0",32,20,17,"FALSE",4,NA,NA,"./images/colors.jpg","colors","center","16","highSimPairs","pearl","mint",NA,NA,NA,9,0,"male",31,FALSE,FALSE,TRUE,TRUE,"3_large","Omission"
"196l8ypg05kwqp9",3.904,NA,NA,"24_5_2024_9_45_53",NA,"CuePresentation",2390336,"0.0-1316.0","0",32,20,18,"FALSE",4,NA,NA,"./images/colors.jpg","colors","center","16","highSimPairs","indigo","silver",NA,NA,NA,12,0,"male",31,FALSE,FALSE,TRUE,TRUE,"3_large","Omission"
"196l8ypg05kwqp9",2.35430000001192,NA,NA,"24_5_2024_9_45_53",NA,"CuePresentation",2397414,"0.0-1320.0","beige",32,20,19,"TRUE",4,NA,NA,"./images/colors.jpg","colors","center","16","highSimPairs","jade","beige",NA,NA,NA,20,1,"male",31,FALSE,FALSE,TRUE,TRUE,"3_large","Correct"
"196l8ypg05kwqp9",1.05269999998808,NA,NA,"24_5_2024_9_45_53",NA,"CuePresentation",2401733,"0.0-1324.0","gold",32,20,20,"TRUE",4,NA,NA,"./images/colors.jpg","colors","center","16","highSimPairs","green","gold",NA,NA,NA,16,1,"male",31,FALSE,FALSE,TRUE,TRUE,"3_large","Correct"
"1f7vpqlg9y4k932",3.98539999997616,NA,NA,"21_5_2024_11_21_13",NA,"CuePresentation",807852,"0.0-258.0","olive",32,20,1,"TRUE",1,NA,NA,"./images/colors.jpg","colors","center","20","highSimPairs","teal","olive",NA,NA,NA,19,1,"non-binary/other",33,FALSE,FALSE,TRUE,TRUE,"3_large","Correct"
"1f7vpqlg9y4k932",1.09739999997616,NA,NA,"21_5_2024_11_21_13",NA,"CuePresentation",815984,"0.0-262.0","rose",32,20,2,"TRUE",1,NA,NA,"./images/colors.jpg","colors","center","20","highSimPairs","ruby","rose",NA,NA,NA,1,1,"non-binary/other",33,FALSE,FALSE,TRUE,TRUE,"3_large","Correct"
"1f7vpqlg9y4k932",1.60260000002384,NA,NA,"21_5_2024_11_21_13",NA,"CuePresentation",824600,"0.0-266.0","bronze",32,20,3,"TRUE",1,NA,NA,"./images/colors.jpg","colors","center","20","highSimPairs","maroon","bronze",NA,NA,NA,5,1,"non-binary/other",33,FALSE,FALSE,TRUE,TRUE,"3_large","Correct"
"1f7vpqlg9y4k932",3.97289999997616,NA,NA,"21_5_2024_11_21_13",NA,"CuePresentation",835609,"0.0-270.0","rust",32,20,4,"TRUE",1,NA,NA,"./images/colors.jpg","colors","center","20","highSimPairs","mint","rust",NA,NA,NA,13,1,"non-binary/other",33,FALSE,FALSE,TRUE,TRUE,"3_large","Correct"
"1f7vpqlg9y4k932",1.3105,NA,NA,"21_5_2024_11_21_13",NA,"CuePresentation",843945,"0.0-274.0","white",32,20,5,"TRUE",1,NA,NA,"./images/colors.jpg","colors","center","20","highSimPairs","jade","white",NA,NA,NA,8,1,"non-binary/other",33,FALSE,FALSE,TRUE,TRUE,"3_large","Correct"
"1f7vpqlg9y4k932",4.90610000002384,NA,NA,"21_5_2024_11_21_13",NA,"CuePresentation",855880,"0.0-278.0","lilac",32,20,6,"FALSE",1,NA,NA,"./images/colors.jpg","colors","center","20","highSimPairs","aqua","scarlet",NA,NA,NA,17,0,"non-binary/other",33,FALSE,FALSE,TRUE,TRUE,"3_large","Intrusion"
"1f7vpqlg9y4k932",11.8491000000238,NA,NA,"21_5_2024_11_21_13",NA,"CuePresentation",874763,"0.0-282.0","0",32,20,7,"FALSE",1,NA,NA,"./images/colors.jpg","colors","center","20","highSimPairs","khaki","silver",NA,NA,NA,16,0,"non-binary/other",33,FALSE,FALSE,TRUE,TRUE,"3_large","Omission"
"1f7vpqlg9y4k932",11.5595999999046,NA,NA,"21_5_2024_11_21_13",NA,"CuePresentation",893344,"0.0-286.0","magenta",32,20,8,"FALSE",1,NA,NA,"./images/colors.jpg","colors","center","20","highSimPairs","lilac","blue",NA,NA,NA,18,0,"non-binary/other",33,FALSE,FALSE,TRUE,TRUE,"3_large","Intrusion"
"1f7vpqlg9y4k932",2.67460000002384,NA,NA,"21_5_2024_11_21_13",NA,"CuePresentation",903045,"0.0-290.0","pink",32,20,9,"TRUE",1,NA,NA,"./images/colors.jpg","colors","center","20","highSimPairs","gray","pink",NA,NA,NA,7,1,"non-binary/other",33,FALSE,FALSE,TRUE,TRUE,"3_large","Correct"
"1f7vpqlg9y4k932",3.391,NA,NA,"21_5_2024_11_21_13",NA,"CuePresentation",913471,"0.0-294.0","lime",32,20,10,"TRUE",1,NA,NA,"./images/colors.jpg","colors","center","20","highSimPairs","peach","lime",NA,NA,NA,10,1,"non-binary/other",33,FALSE,FALSE,TRUE,TRUE,"3_large","Correct"
"1f7vpqlg9y4k932",1.71079999995232,NA,NA,"21_5_2024_11_21_13",NA,"CuePresentation",922196,"0.0-298.0","green",32,20,11,"TRUE",1,NA,NA,"./images/colors.jpg","colors","center","20","highSimPairs","coral","green",NA,NA,NA,4,1,"non-binary/other",33,FALSE,FALSE,TRUE,TRUE,"3_large","Correct"
"1f7vpqlg9y4k932",3.8295,NA,NA,"21_5_2024_11_21_13",NA,"CuePresentation",933054,"0.0-302.0","sable",32,20,12,"TRUE",1,NA,NA,"./images/colors.jpg","colors","center","20","highSimPairs","yellow","sable",NA,NA,NA,2,1,"non-binary/other",33,FALSE,FALSE,TRUE,TRUE,"3_large","Correct"
"1f7vpqlg9y4k932",13.0985,NA,NA,"21_5_2024_11_21_13",NA,"CuePresentation",953181,"0.0-306.0","maroon",32,20,13,"FALSE",1,NA,NA,"./images/colors.jpg","colors","center","20","highSimPairs","brown","indigo",NA,NA,NA,12,0,"non-binary/other",33,FALSE,FALSE,TRUE,TRUE,"3_large","Intrusion"
"1f7vpqlg9y4k932",2.30689999997616,NA,NA,"21_5_2024_11_21_13",NA,"CuePresentation",962508,"0.0-310.0","crimson",32,20,14,"TRUE",1,NA,NA,"./images/colors.jpg","colors","center","20","highSimPairs","ivory","crimson",NA,NA,NA,9,1,"non-binary/other",33,FALSE,FALSE,TRUE,TRUE,"3_large","Correct"
"1f7vpqlg9y4k932",1.50860000002384,NA,NA,"21_5_2024_11_21_13",NA,"CuePresentation",971046,"0.0-314.0","pearl",32,20,15,"TRUE",1,NA,NA,"./images/colors.jpg","colors","center","20","highSimPairs","navy","pearl",NA,NA,NA,3,1,"non-binary/other",33,FALSE,FALSE,TRUE,TRUE,"3_large","Correct"
"1f7vpqlg9y4k932",4.75810000002384,NA,NA,"21_5_2024_11_21_13",NA,"CuePresentation",982837,"0.0-318.0","0",32,20,16,"FALSE",1,NA,NA,"./images/colors.jpg","colors","center","20","highSimPairs","purple","plum",NA,NA,NA,20,0,"non-binary/other",33,FALSE,FALSE,TRUE,TRUE,"3_large","Omission"
"1f7vpqlg9y4k932",3.66779999995232,NA,NA,"21_5_2024_11_21_13",NA,"CuePresentation",993535,"0.0-322.0","sapphire",32,20,17,"TRUE",1,NA,NA,"./images/colors.jpg","colors","center","20","highSimPairs","orange","sapphire",NA,NA,NA,6,1,"non-binary/other",33,FALSE,FALSE,TRUE,TRUE,"3_large","Correct"
"1f7vpqlg9y4k932",3.06879999995232,NA,NA,"21_5_2024_11_21_13",NA,"CuePresentation",1003632,"0.0-326.0","violet",32,20,18,"TRUE",1,NA,NA,"./images/colors.jpg","colors","center","20","highSimPairs","sand","violet",NA,NA,NA,11,1,"non-binary/other",33,FALSE,FALSE,TRUE,TRUE,"3_large","Correct"
"1f7vpqlg9y4k932",7.22680000007153,NA,NA,"21_5_2024_11_21_13",NA,"CuePresentation",1017885,"0.0-330.0","magenta",32,20,19,"TRUE",1,NA,NA,"./images/colors.jpg","colors","center","20","highSimPairs","lavender","magenta",NA,NA,NA,15,1,"non-binary/other",33,FALSE,FALSE,TRUE,TRUE,"3_large","Correct"
"1f7vpqlg9y4k932",3.618,NA,NA,"21_5_2024_11_21_13",NA,"CuePresentation",1028539,"0.0-334.0","blush",32,20,20,"TRUE",1,NA,NA,"./images/colors.jpg","colors","center","20","highSimPairs","gold","blush",NA,NA,NA,14,1,"non-binary/other",33,FALSE,FALSE,TRUE,TRUE,"3_large","Correct"
"1f7vpqlg9y4k932",3.18809999990463,NA,NA,"21_5_2024_11_21_13",NA,"CuePresentation",1702739,"0.0-588.0","egypt",32,20,1,"TRUE",2,NA,NA,"./images/countries.jpg","countries","center","16","highSimPairs","liberia","egypt",NA,NA,NA,20,1,"non-binary/other",33,FALSE,FALSE,TRUE,TRUE,"3_large","Correct"
"1f7vpqlg9y4k932",2.37210000002384,NA,NA,"21_5_2024_11_21_13",NA,"CuePresentation",1712141,"0.0-592.0","kuw",32,20,2,"TRUE",2,NA,NA,"./images/countries.jpg","countries","center","16","highSimPairs","israel","kuwait",NA,NA,NA,3,1,"non-binary/other",33,FALSE,FALSE,TRUE,TRUE,"3_large","Correct"
"1f7vpqlg9y4k932",7.09229999995232,NA,NA,"21_5_2024_11_21_13",NA,"CuePresentation",1726253,"0.0-596.0","0",32,20,3,"FALSE",2,NA,NA,"./images/countries.jpg","countries","center","16","highSimPairs","qatar","tonga",NA,NA,NA,12,0,"non-binary/other",33,FALSE,FALSE,TRUE,TRUE,"3_large","Omission"
"1f7vpqlg9y4k932",9.73739999997616,NA,NA,"21_5_2024_11_21_13",NA,"CuePresentation",1743017,"0.0-600.0","qat",32,20,4,"FALSE",2,NA,NA,"./images/countries.jpg","countries","center","16","highSimPairs","senegal","greece",NA,NA,NA,14,0,"non-binary/other",33,FALSE,FALSE,TRUE,TRUE,"3_large","Misspelled Intrusion"
"1f7vpqlg9y4k932",2.68480000007153,NA,NA,"21_5_2024_11_21_13",NA,"CuePresentation",1752740,"0.0-604.0","desk",32,20,5,"TRUE",2,NA,NA,"./images/furniature.jpg","furniature","center","4","highSimPairs","buffet","desk",NA,NA,NA,8,1,"non-binary/other",33,FALSE,FALSE,TRUE,TRUE,"1_small","Correct"
"1f7vpqlg9y4k932",2.64089999997616,NA,NA,"21_5_2024_11_21_13",NA,"CuePresentation",1762403,"0.0-608.0","settee",32,20,6,"TRUE",2,NA,NA,"./images/furniature.jpg","furniature","center","4","highSimPairs","bunkbed","settee",NA,NA,NA,5,1,"non-binary/other",33,FALSE,FALSE,TRUE,TRUE,"1_small","Correct"
"1f7vpqlg9y4k932",1.51010000002384,NA,NA,"21_5_2024_11_21_13",NA,"CuePresentation",1770930,"0.0-612.0","table",32,20,7,"TRUE",2,NA,NA,"./images/furniature.jpg","furniature","center","4","highSimPairs","chair","table",NA,NA,NA,13,1,"non-binary/other",33,FALSE,FALSE,TRUE,TRUE,"1_small","Correct"
"1f7vpqlg9y4k932",27.0162999999523,NA,NA,"21_5_2024_11_21_13",NA,"CuePresentation",1804978,"0.0-616.0","lithuania",32,20,8,"FALSE",2,NA,NA,"./images/countries.jpg","countries","center","16","highSimPairs","fiji","latvia",NA,NA,NA,9,0,"non-binary/other",33,FALSE,FALSE,TRUE,TRUE,"3_large","Intrusion"
"1f7vpqlg9y4k932",9.39360000002384,NA,NA,"21_5_2024_11_21_13",NA,"CuePresentation",1821386,"0.0-620.0","senegal",32,20,9,"FALSE",2,NA,NA,"./images/countries.jpg","countries","center","16","highSimPairs","italy","jordan",NA,NA,NA,15,0,"non-binary/other",33,FALSE,FALSE,TRUE,TRUE,"3_large","Intrusion"
"1f7vpqlg9y4k932",2.68789999997616,NA,NA,"21_5_2024_11_21_13",NA,"CuePresentation",1831099,"0.0-624.0","crate",32,20,10,"TRUE",2,NA,NA,"./images/furniature.jpg","furniature","center","4","highSimPairs","pouffe","crate",NA,NA,NA,2,1,"non-binary/other",33,FALSE,FALSE,TRUE,TRUE,"1_small","Correct"
"1f7vpqlg9y4k932",1.5815,NA,NA,"21_5_2024_11_21_13",NA,"CuePresentation",1839716,"0.0-628.0","germany",32,20,11,"TRUE",2,NA,NA,"./images/countries.jpg","countries","center","16","highSimPairs","guinea","germany",NA,NA,NA,1,1,"non-binary/other",33,FALSE,FALSE,TRUE,TRUE,"3_large","Correct"
"1f7vpqlg9y4k932",11.6273999999762,NA,NA,"21_5_2024_11_21_13",NA,"CuePresentation",1858369,"0.0-632.0","0",32,20,12,"FALSE",2,NA,NA,"./images/countries.jpg","countries","center","16","highSimPairs","sweden","sierra",NA,NA,NA,4,0,"non-binary/other",33,FALSE,FALSE,TRUE,TRUE,"3_large","Omission"
"1f7vpqlg9y4k932",25.6385,NA,NA,"21_5_2024_11_21_13",NA,"CuePresentation",1891033,"0.0-636.0","greece",32,20,13,"FALSE",2,NA,NA,"./images/countries.jpg","countries","center","16","highSimPairs","cyprus","bhutan",NA,NA,NA,16,0,"non-binary/other",33,FALSE,FALSE,TRUE,TRUE,"3_large","Intrusion"
"1f7vpqlg9y4k932",10.0472999999523,NA,NA,"21_5_2024_11_21_13",NA,"CuePresentation",1908098,"0.0-640.0","syria",32,20,14,"FALSE",2,NA,NA,"./images/countries.jpg","countries","center","16","highSimPairs","poland","japan",NA,NA,NA,7,0,"non-binary/other",33,FALSE,FALSE,TRUE,TRUE,"3_large","Intrusion"
"1f7vpqlg9y4k932",4.16729999995232,NA,NA,"21_5_2024_11_21_13",NA,"CuePresentation",1919287,"0.0-644.0","samoa",32,20,15,"TRUE",2,NA,NA,"./images/countries.jpg","countries","center","16","highSimPairs","brazil","samoa",NA,NA,NA,18,1,"non-binary/other",33,FALSE,FALSE,TRUE,TRUE,"3_large","Correct"
"1f7vpqlg9y4k932",7.89359999990463,NA,NA,"21_5_2024_11_21_13",NA,"CuePresentation",1934201,"0.0-648.0","0",32,20,16,"FALSE",2,NA,NA,"./images/countries.jpg","countries","center","16","highSimPairs","chile","nepal",NA,NA,NA,17,0,"non-binary/other",33,FALSE,FALSE,TRUE,TRUE,"3_large","Omission"
"1f7vpqlg9y4k932",11.0276000000238,NA,NA,"21_5_2024_11_21_13",NA,"CuePresentation",1952256,"0.0-652.0","guana",32,20,17,"FALSE",2,NA,NA,"./images/countries.jpg","countries","center","16","highSimPairs","canada","uganda",NA,NA,NA,11,0,"non-binary/other",33,FALSE,FALSE,TRUE,TRUE,"3_large","Misspelled Intrusion"
"1f7vpqlg9y4k932",4.58640000009537,NA,NA,"21_5_2024_11_21_13",NA,"CuePresentation",1963861,"0.0-656.0","0",32,20,18,"FALSE",2,NA,NA,"./images/countries.jpg","countries","center","16","highSimPairs","niger","angola",NA,NA,NA,10,0,"non-binary/other",33,FALSE,FALSE,TRUE,TRUE,"3_large","Omission"
"1f7vpqlg9y4k932",13.0681000000238,NA,NA,"21_5_2024_11_21_13",NA,"CuePresentation",1983959,"0.0-660.0","canada",32,20,19,"FALSE",2,NA,NA,"./images/countries.jpg","countries","center","16","highSimPairs","ghana","syria",NA,NA,NA,6,0,"non-binary/other",33,FALSE,FALSE,TRUE,TRUE,"3_large","Intrusion"
"1f7vpqlg9y4k932",3.37729999995232,NA,NA,"21_5_2024_11_21_13",NA,"CuePresentation",1994367,"0.0-664.0","0",32,20,20,"FALSE",2,NA,NA,"./images/countries.jpg","countries","center","16","highSimPairs","malawi","yemen",NA,NA,NA,19,0,"non-binary/other",33,FALSE,FALSE,TRUE,TRUE,"3_large","Omission"
"1f7vpqlg9y4k932",4.27779999995232,NA,NA,"21_5_2024_11_21_13",NA,"CuePresentation",2754684,"0.0-918.0","wasabi",32,20,1,"TRUE",3,NA,NA,"./images/veggies.png","veggies","center","18","highSimPairs","broccoli","wasabi",NA,NA,NA,5,1,"non-binary/other",33,FALSE,FALSE,TRUE,TRUE,"3_large","Correct"
"1f7vpqlg9y4k932",1.44480000007153,NA,NA,"21_5_2024_11_21_13",NA,"CuePresentation",2763155,"0.0-922.0","squash",32,20,2,"TRUE",3,NA,NA,"./images/veggies.png","veggies","center","18","highSimPairs","bean","squash",NA,NA,NA,10,1,"non-binary/other",33,FALSE,FALSE,TRUE,TRUE,"3_large","Correct"
"1f7vpqlg9y4k932",7.31489999997616,NA,NA,"21_5_2024_11_21_13",NA,"CuePresentation",2777487,"0.0-926.0","radi",32,20,3,"TRUE",3,NA,NA,"./images/veggies.png","veggies","center","18","highSimPairs","ginger","radish",NA,NA,NA,19,1,"non-binary/other",33,FALSE,FALSE,TRUE,TRUE,"3_large","Correct"
"1f7vpqlg9y4k932",3.95729999995232,NA,NA,"21_5_2024_11_21_13",NA,"CuePresentation",2788462,"0.0-930.0","priest",32,20,4,"TRUE",3,NA,NA,"./images/jobs.jpg","jobs","center","2","highSimPairs","welder","priest",NA,NA,NA,17,1,"non-binary/other",33,FALSE,FALSE,TRUE,TRUE,"1_small","Correct"
"1f7vpqlg9y4k932",1.37130000007153,NA,NA,"21_5_2024_11_21_13",NA,"CuePresentation",2796850,"0.0-934.0","kale",32,20,5,"TRUE",3,NA,NA,"./images/veggies.png","veggies","center","18","highSimPairs","okra","kale",NA,NA,NA,4,1,"non-binary/other",33,FALSE,FALSE,TRUE,TRUE,"3_large","Correct"
"1f7vpqlg9y4k932",1.90440000009537,NA,NA,"21_5_2024_11_21_13",NA,"CuePresentation",2805787,"0.0-938.0","chard",32,20,6,"TRUE",3,NA,NA,"./images/veggies.png","veggies","center","18","highSimPairs","fennel","chard",NA,NA,NA,13,1,"non-binary/other",33,FALSE,FALSE,TRUE,TRUE,"3_large","Correct"
"1f7vpqlg9y4k932",1.8775,NA,NA,"21_5_2024_11_21_13",NA,"CuePresentation",2814681,"0.0-942.0","onion",32,20,7,"TRUE",3,NA,NA,"./images/veggies.png","veggies","center","18","highSimPairs","carrot","onion",NA,NA,NA,11,1,"non-binary/other",33,FALSE,FALSE,TRUE,TRUE,"3_large","Correct"
"1f7vpqlg9y4k932",2.487,NA,NA,"21_5_2024_11_21_13",NA,"CuePresentation",2824205,"0.0-946.0","chili",32,20,8,"TRUE",3,NA,NA,"./images/veggies.png","veggies","center","18","highSimPairs","endive","chili",NA,NA,NA,14,1,"non-binary/other",33,FALSE,FALSE,TRUE,TRUE,"3_large","Correct"
"1f7vpqlg9y4k932",4.62910000002384,NA,NA,"21_5_2024_11_21_13",NA,"CuePresentation",2835864,"0.0-950.0","kohla",32,20,9,"TRUE",3,NA,NA,"./images/veggies.png","veggies","center","18","highSimPairs","chicory","kohlrabi",NA,NA,NA,7,1,"non-binary/other",33,FALSE,FALSE,TRUE,TRUE,"3_large","Correct"
"1f7vpqlg9y4k932",3.506,NA,NA,"21_5_2024_11_21_13",NA,"CuePresentation",2846408,"0.0-954.0","eggplant",32,20,10,"TRUE",3,NA,NA,"./images/veggies.png","veggies","center","18","highSimPairs","pepper","eggplant",NA,NA,NA,3,1,"non-binary/other",33,FALSE,FALSE,TRUE,TRUE,"3_large","Correct"
"1f7vpqlg9y4k932",2.76939999997616,NA,NA,"21_5_2024_11_21_13",NA,"CuePresentation",2856210,"0.0-958.0","taro",32,20,11,"TRUE",3,NA,NA,"./images/veggies.png","veggies","center","18","highSimPairs","tomato","taro",NA,NA,NA,18,1,"non-binary/other",33,FALSE,FALSE,TRUE,TRUE,"3_large","Correct"
"1f7vpqlg9y4k932",2.123,NA,NA,"21_5_2024_11_21_13",NA,"CuePresentation",2865349,"0.0-962.0","bamboo",32,20,12,"TRUE",3,NA,NA,"./images/veggies.png","veggies","center","18","highSimPairs","rosemary","bamboo",NA,NA,NA,9,1,"non-binary/other",33,FALSE,FALSE,TRUE,TRUE,"3_large","Correct"
"1f7vpqlg9y4k932",2.17540000009537,NA,NA,"21_5_2024_11_21_13",NA,"CuePresentation",2874559,"0.0-966.0","lawyer",32,20,13,"TRUE",3,NA,NA,"./images/jobs.jpg","jobs","center","2","highSimPairs","scout","lawyer",NA,NA,NA,8,1,"non-binary/other",33,FALSE,FALSE,TRUE,TRUE,"1_small","Correct"
"1f7vpqlg9y4k932",1.45139999997616,NA,NA,"21_5_2024_11_21_13",NA,"CuePresentation",2883025,"0.0-970.0","celery",32,20,14,"TRUE",3,NA,NA,"./images/veggies.png","veggies","center","18","highSimPairs","ramp","celery",NA,NA,NA,20,1,"non-binary/other",33,FALSE,FALSE,TRUE,TRUE,"3_large","Correct"
"1f7vpqlg9y4k932",2.58980000007153,NA,NA,"21_5_2024_11_21_13",NA,"CuePresentation",2892629,"0.0-974.0","garlic",32,20,15,"TRUE",3,NA,NA,"./images/veggies.png","veggies","center","18","highSimPairs","lotus","garlic",NA,NA,NA,2,1,"non-binary/other",33,FALSE,FALSE,TRUE,TRUE,"3_large","Correct"
"1f7vpqlg9y4k932",43.4633999999762,NA,NA,"21_5_2024_11_21_13",NA,"CuePresentation",2943121,"0.0-978.0","0",32,20,16,"FALSE",3,NA,NA,"./images/veggies.png","veggies","center","18","highSimPairs","beet","cabbage",NA,NA,NA,15,0,"non-binary/other",33,FALSE,FALSE,TRUE,TRUE,"3_large","Omission"
"1f7vpqlg9y4k932",7.57239999997616,NA,NA,"21_5_2024_11_21_13",NA,"CuePresentation",2957732,"0.0-982.0","lentil",32,20,17,"TRUE",3,NA,NA,"./images/veggies.png","veggies","center","18","highSimPairs","daikon","lentil",NA,NA,NA,6,1,"non-binary/other",33,FALSE,FALSE,TRUE,TRUE,"3_large","Correct"
"1f7vpqlg9y4k932",15.5493999999762,NA,NA,"21_5_2024_11_21_13",NA,"CuePresentation",2980313,"0.0-986.0","beet",32,20,18,"FALSE",3,NA,NA,"./images/veggies.png","veggies","center","18","highSimPairs","lettuce","thyme",NA,NA,NA,16,0,"non-binary/other",33,FALSE,FALSE,TRUE,TRUE,"3_large","Intrusion"
"1f7vpqlg9y4k932",9.205,NA,NA,"21_5_2024_11_21_13",NA,"CuePresentation",2996554,"0.0-990.0","cilantro",32,20,19,"TRUE",3,NA,NA,"./images/veggies.png","veggies","center","18","highSimPairs","shallot","cilantro",NA,NA,NA,1,1,"non-binary/other",33,FALSE,FALSE,TRUE,TRUE,"3_large","Correct"
"1f7vpqlg9y4k932",2.10670000004768,NA,NA,"21_5_2024_11_21_13",NA,"CuePresentation",3005689,"0.0-994.0","potato",32,20,20,"TRUE",3,NA,NA,"./images/veggies.png","veggies","center","18","highSimPairs","turnip","potato",NA,NA,NA,12,1,"non-binary/other",33,FALSE,FALSE,TRUE,TRUE,"3_large","Correct"
"1f7vpqlg9y4k932",2.0925,NA,NA,"21_5_2024_11_21_13",NA,"CuePresentation",3661610,"0.0-1248.0","client",32,20,1,"TRUE",4,NA,NA,"./images/NoneContext.jpg","None","center","None","highSimPairs","customer","client",NA,NA,NA,14,1,"non-binary/other",33,FALSE,FALSE,TRUE,TRUE,"0_NoneHighSim","Correct"
"1f7vpqlg9y4k932",1.07970000004768,NA,NA,"21_5_2024_11_21_13",NA,"CuePresentation",3669724,"0.0-1252.0","rain",32,20,2,"TRUE",4,NA,NA,"./images/NoneContext.jpg","None","center","None","highSimPairs","snow","rain",NA,NA,NA,11,1,"non-binary/other",33,FALSE,FALSE,TRUE,TRUE,"0_NoneHighSim","Correct"
"1f7vpqlg9y4k932",2.733,NA,NA,"21_5_2024_11_21_13",NA,"CuePresentation",3679494,"0.0-1256.0","primary",32,20,3,"TRUE",4,NA,NA,"./images/NoneContext.jpg","None","center","None","highSimPairs","main","primary",NA,NA,NA,5,1,"non-binary/other",33,FALSE,FALSE,TRUE,TRUE,"0_NoneHighSim","Correct"
"1f7vpqlg9y4k932",1.62389999997616,NA,NA,"21_5_2024_11_21_13",NA,"CuePresentation",3688133,"0.0-1260.0","outside",32,20,4,"TRUE",4,NA,NA,"./images/NoneContext.jpg","None","center","None","highSimPairs","inside","outside",NA,NA,NA,7,1,"non-binary/other",33,FALSE,FALSE,TRUE,TRUE,"0_NoneHighSim","Correct"
"1f7vpqlg9y4k932",9.13880000007152,NA,NA,"21_5_2024_11_21_13",NA,"CuePresentation",3704289,"0.0-1264.0","focus",32,20,5,"TRUE",4,NA,NA,"./images/NoneContext.jpg","None","center","None","highSimPairs","emphasis","focus",NA,NA,NA,13,1,"non-binary/other",33,FALSE,FALSE,TRUE,TRUE,"0_NoneHighSim","Correct"
"1f7vpqlg9y4k932",1.38889999997616,NA,NA,"21_5_2024_11_21_13",NA,"CuePresentation",3712694,"0.0-1268.0","push",32,20,6,"TRUE",4,NA,NA,"./images/NoneContext.jpg","None","center","None","highSimPairs","pull","push",NA,NA,NA,2,1,"non-binary/other",33,FALSE,FALSE,TRUE,TRUE,"0_NoneHighSim","Correct"
"1f7vpqlg9y4k932",11.9732000000477,NA,NA,"21_5_2024_11_21_13",NA,"CuePresentation",3731688,"0.0-1272.0","shop",32,20,7,"TRUE",4,NA,NA,"./images/NoneContext.jpg","None","center","None","highSimPairs","store","shop",NA,NA,NA,9,1,"non-binary/other",33,FALSE,FALSE,TRUE,TRUE,"0_NoneHighSim","Correct"
"1f7vpqlg9y4k932",1.73130000007153,NA,NA,"21_5_2024_11_21_13",NA,"CuePresentation",3740446,"0.0-1276.0","trash",32,20,8,"TRUE",4,NA,NA,"./images/NoneContext.jpg","None","center","None","highSimPairs","garbage","trash",NA,NA,NA,6,1,"non-binary/other",33,FALSE,FALSE,TRUE,TRUE,"0_NoneHighSim","Correct"
"1f7vpqlg9y4k932",1.56409999990463,NA,NA,"21_5_2024_11_21_13",NA,"CuePresentation",3749035,"0.0-1280.0","length",32,20,9,"TRUE",4,NA,NA,"./images/NoneContext.jpg","None","center","None","highSimPairs","height","length",NA,NA,NA,12,1,"non-binary/other",33,FALSE,FALSE,TRUE,TRUE,"0_NoneHighSim","Correct"
"1f7vpqlg9y4k932",1.65110000002384,NA,NA,"21_5_2024_11_21_13",NA,"CuePresentation",3757705,"0.0-1284.0","male",32,20,10,"TRUE",4,NA,NA,"./images/NoneContext.jpg","None","center","None","highSimPairs","female","male",NA,NA,NA,20,1,"non-binary/other",33,FALSE,FALSE,TRUE,TRUE,"0_NoneHighSim","Correct"
"1f7vpqlg9y4k932",7.85019999992847,NA,NA,"21_5_2024_11_21_13",NA,"CuePresentation",3772586,"0.0-1288.0","welcome",32,20,11,"TRUE",4,NA,NA,"./images/NoneContext.jpg","None","center","None","highSimPairs","invite","welcome",NA,NA,NA,4,1,"non-binary/other",33,FALSE,FALSE,TRUE,TRUE,"0_NoneHighSim","Correct"
"1f7vpqlg9y4k932",1.53560000002384,NA,NA,"21_5_2024_11_21_13",NA,"CuePresentation",3781139,"0.0-1292.0","anger",32,20,12,"TRUE",4,NA,NA,"./images/NoneContext.jpg","None","center","None","highSimPairs","fear","anger",NA,NA,NA,8,1,"non-binary/other",33,FALSE,FALSE,TRUE,TRUE,"0_NoneHighSim","Correct"
"1f7vpqlg9y4k932",1.25279999995232,NA,NA,"21_5_2024_11_21_13",NA,"CuePresentation",3789418,"0.0-1296.0","incident",32,20,13,"TRUE",4,NA,NA,"./images/NoneContext.jpg","None","center","None","highSimPairs","accident","incident",NA,NA,NA,18,1,"non-binary/other",33,FALSE,FALSE,TRUE,TRUE,"0_NoneHighSim","Correct"
"1f7vpqlg9y4k932",1.1425,NA,NA,"21_5_2024_11_21_13",NA,"CuePresentation",3797581,"0.0-1300.0","mortgage",32,20,14,"TRUE",4,NA,NA,"./images/NoneContext.jpg","None","center","None","highSimPairs","loan","mortgage",NA,NA,NA,19,1,"non-binary/other",33,FALSE,FALSE,TRUE,TRUE,"0_NoneHighSim","Correct"
"1f7vpqlg9y4k932",1.81539999997616,NA,NA,"21_5_2024_11_21_13",NA,"CuePresentation",3806428,"0.0-1304.0","girl",32,20,15,"TRUE",4,NA,NA,"./images/NoneContext.jpg","None","center","None","highSimPairs","woman","girl",NA,NA,NA,17,1,"non-binary/other",33,FALSE,FALSE,TRUE,TRUE,"0_NoneHighSim","Correct"
"1f7vpqlg9y4k932",1.72659999990463,NA,NA,"21_5_2024_11_21_13",NA,"CuePresentation",3815171,"0.0-1308.0","quiet",32,20,16,"TRUE",4,NA,NA,"./images/NoneContext.jpg","None","center","None","highSimPairs","calm","quiet",NA,NA,NA,16,1,"non-binary/other",33,FALSE,FALSE,TRUE,TRUE,"0_NoneHighSim","Correct"
"1f7vpqlg9y4k932",1.49410000002384,NA,NA,"21_5_2024_11_21_13",NA,"CuePresentation",3823698,"0.0-1312.0","tongue",32,20,17,"TRUE",4,NA,NA,"./images/NoneContext.jpg","None","center","None","highSimPairs","cheek","tongue",NA,NA,NA,10,1,"non-binary/other",33,FALSE,FALSE,TRUE,TRUE,"0_NoneHighSim","Correct"
"1f7vpqlg9y4k932",14.4956999999285,NA,NA,"21_5_2024_11_21_13",NA,"CuePresentation",3845210,"0.0-1316.0","city",32,20,18,"TRUE",4,NA,NA,"./images/NoneContext.jpg","None","center","None","highSimPairs","town","city",NA,NA,NA,1,1,"non-binary/other",33,FALSE,FALSE,TRUE,TRUE,"0_NoneHighSim","Correct"
"1f7vpqlg9y4k932",12.164,NA,NA,"21_5_2024_11_21_13",NA,"CuePresentation",3864406,"0.0-1320.0","word",32,20,19,"TRUE",4,NA,NA,"./images/NoneContext.jpg","None","center","None","highSimPairs","phrase","word",NA,NA,NA,15,1,"non-binary/other",33,FALSE,FALSE,TRUE,TRUE,"0_NoneHighSim","Correct"
"1f7vpqlg9y4k932",1.07890000009537,NA,NA,"21_5_2024_11_21_13",NA,"CuePresentation",3872514,"0.0-1324.0","guitar",32,20,20,"TRUE",4,NA,NA,"./images/NoneContext.jpg","None","center","None","highSimPairs","piano","guitar",NA,NA,NA,3,1,"non-binary/other",33,FALSE,FALSE,TRUE,TRUE,"0_NoneHighSim","Correct"
"26bnxj1xutj1dzp",5.67140000000223,NA,NA,"25_5_2024_9_29_17",NA,"CuePresentation",676652,"0.0-258.0","white",32,20,1,"TRUE",1,NA,NA,"./images/colors.jpg","colors","center","16","lowSimList","lilac","white",NA,NA,NA,10,1,"male",40,FALSE,FALSE,TRUE,TRUE,"3_large","Correct"
"26bnxj1xutj1dzp",3.34630000000075,NA,NA,"25_5_2024_9_29_17",NA,"CuePresentation",683429,"0.0-262.0","sand",32,20,2,"TRUE",1,NA,NA,"./images/colors.jpg","colors","center","16","lowSimList","maroon","sand",NA,NA,NA,5,1,"male",40,FALSE,FALSE,TRUE,TRUE,"3_large","Correct"
"26bnxj1xutj1dzp",2.25319999999925,NA,NA,"25_5_2024_9_29_17",NA,"CuePresentation",689748,"0.0-266.0","egytpt",32,20,3,"FALSE",1,NA,NA,"./images/countries.jpg","countries","center","4","lowSimList","brazil","norway",NA,NA,NA,17,0,"male",40,FALSE,FALSE,TRUE,TRUE,"1_small","Misspelled Intrusion"
"26bnxj1xutj1dzp",3.5165,NA,NA,"25_5_2024_9_29_17",NA,"CuePresentation",700259,"0.0-270.0","plum",32,20,4,"TRUE",1,NA,NA,"./images/colors.jpg","colors","center","16","lowSimList","beige","plum",NA,NA,NA,6,1,"male",40,FALSE,FALSE,TRUE,TRUE,"3_large","Correct"
"26bnxj1xutj1dzp",2.51180000000075,NA,NA,"25_5_2024_9_29_17",NA,"CuePresentation",706716,"0.0-274.0","purple",32,20,5,"FALSE",1,NA,NA,"./images/colors.jpg","colors","center","16","lowSimList","sepia","mauve",NA,NA,NA,16,0,"male",40,FALSE,FALSE,TRUE,TRUE,"3_large","Intrusion"
"26bnxj1xutj1dzp",1.78360000000149,NA,NA,"25_5_2024_9_29_17",NA,"CuePresentation",713369,"0.0-278.0","teal",32,20,6,"TRUE",1,NA,NA,"./images/colors.jpg","colors","center","16","lowSimList","navy","teal",NA,NA,NA,18,1,"male",40,FALSE,FALSE,TRUE,TRUE,"3_large","Correct"
"26bnxj1xutj1dzp",2.43530000000074,NA,NA,"25_5_2024_9_29_17",NA,"CuePresentation",719538,"0.0-282.0","purple",32,20,7,"TRUE",1,NA,NA,"./images/colors.jpg","colors","center","16","lowSimList","sable","purple",NA,NA,NA,3,1,"male",40,FALSE,FALSE,TRUE,TRUE,"3_large","Correct"
"26bnxj1xutj1dzp",3.58009999999776,NA,NA,"25_5_2024_9_29_17",NA,"CuePresentation",727468,"0.0-286.0","egypt",32,20,8,"TRUE",1,NA,NA,"./images/countries.jpg","countries","center","4","lowSimList","france","egypt",NA,NA,NA,12,1,"male",40,FALSE,FALSE,TRUE,TRUE,"1_small","Correct"
"26bnxj1xutj1dzp",3.33069999999926,NA,NA,"25_5_2024_9_29_17",NA,"CuePresentation",735677,"0.0-290.0","lime",32,20,9,"TRUE",1,NA,NA,"./images/colors.jpg","colors","center","16","lowSimList","lavender","lime",NA,NA,NA,11,1,"male",40,FALSE,FALSE,TRUE,TRUE,"3_large","Correct"
"26bnxj1xutj1dzp",5.0725,NA,NA,"25_5_2024_9_29_17",NA,"CuePresentation",745087,"0.0-294.0","japan",32,20,10,"FALSE",1,NA,NA,"./images/countries.jpg","countries","center","4","lowSimList","guinea","mexico",NA,NA,NA,2,0,"male",40,FALSE,FALSE,TRUE,TRUE,"1_small","Intrusion"
"26bnxj1xutj1dzp",9.47869999999926,NA,NA,"25_5_2024_9_29_17",NA,"CuePresentation",758849,"0.0-298.0","0",32,20,11,"FALSE",1,NA,NA,"./images/countries.jpg","countries","center","4","lowSimList","japan","nepal",NA,NA,NA,19,0,"male",40,FALSE,FALSE,TRUE,TRUE,"1_small","Omission"
"26bnxj1xutj1dzp",4.50909999999776,NA,NA,"25_5_2024_9_29_17",NA,"CuePresentation",766547,"0.0-302.0","yellow",32,20,12,"FALSE",1,NA,NA,"./images/colors.jpg","colors","center","16","lowSimList","ivory","cyan",NA,NA,NA,9,0,"male",40,FALSE,FALSE,TRUE,TRUE,"3_large","Intrusion"
"26bnxj1xutj1dzp",2.04310000000149,NA,NA,"25_5_2024_9_29_17",NA,"CuePresentation",775307,"0.0-306.0","blush",32,20,13,"TRUE",1,NA,NA,"./images/colors.jpg","colors","center","16","lowSimList","pink","blush",NA,NA,NA,15,1,"male",40,FALSE,FALSE,TRUE,TRUE,"3_large","Correct"
"26bnxj1xutj1dzp",5.616,NA,NA,"25_5_2024_9_29_17",NA,"CuePresentation",784872,"0.0-310.0","khaki",32,20,14,"TRUE",1,NA,NA,"./images/colors.jpg","colors","center","16","lowSimList","ruby","khaki",NA,NA,NA,7,1,"male",40,FALSE,FALSE,TRUE,TRUE,"3_large","Correct"
"26bnxj1xutj1dzp",1.5655,NA,NA,"25_5_2024_9_29_17",NA,"CuePresentation",791057,"0.0-314.0","blakc",32,20,15,"TRUE",1,NA,NA,"./images/colors.jpg","colors","center","16","lowSimList","magenta","black",NA,NA,NA,13,1,"male",40,FALSE,FALSE,TRUE,TRUE,"3_large","Correct"
"26bnxj1xutj1dzp",6.10560000000149,NA,NA,"25_5_2024_9_29_17",NA,"CuePresentation",800514,"0.0-318.0","green",32,20,16,"FALSE",1,NA,NA,"./images/colors.jpg","colors","center","16","lowSimList","coral","gold",NA,NA,NA,20,0,"male",40,FALSE,FALSE,TRUE,TRUE,"3_large","Intrusion"
"26bnxj1xutj1dzp",3.1305,NA,NA,"25_5_2024_9_29_17",NA,"CuePresentation",807619,"0.0-322.0","0",32,20,17,"FALSE",1,NA,NA,"./images/colors.jpg","colors","center","16","lowSimList","indigo","aqua",NA,NA,NA,1,0,"male",40,FALSE,FALSE,TRUE,TRUE,"3_large","Omission"
"26bnxj1xutj1dzp",2.4785,NA,NA,"25_5_2024_9_29_17",NA,"CuePresentation",815720,"0.0-326.0","silver",32,20,18,"TRUE",1,NA,NA,"./images/colors.jpg","colors","center","16","lowSimList","sapphire","silver",NA,NA,NA,4,1,"male",40,FALSE,FALSE,TRUE,TRUE,"3_large","Correct"
"26bnxj1xutj1dzp",0.971,NA,NA,"25_5_2024_9_29_17",NA,"CuePresentation",820864,"0.0-330.0","brown",32,20,19,"TRUE",1,NA,NA,"./images/colors.jpg","colors","center","16","lowSimList","rust","brown",NA,NA,NA,8,1,"male",40,FALSE,FALSE,TRUE,TRUE,"3_large","Correct"
"26bnxj1xutj1dzp",2.20630000000074,NA,NA,"25_5_2024_9_29_17",NA,"CuePresentation",826253,"0.0-334.0","scarlet",32,20,20,"TRUE",1,NA,NA,"./images/colors.jpg","colors","center","16","lowSimList","pearl","scarlet",NA,NA,NA,14,1,"male",40,FALSE,FALSE,TRUE,TRUE,"3_large","Correct"
"26bnxj1xutj1dzp",3.541,NA,NA,"25_5_2024_9_29_17",NA,"CuePresentation",1381389,"0.0-588.0","lorry",32,20,1,"FALSE",2,NA,NA,"./images/NoneContext.jpg","None","center","None","lowSimList","office","long",NA,NA,NA,5,0,"male",40,FALSE,FALSE,TRUE,TRUE,"0_NoneLowSim","Intrusion"
"26bnxj1xutj1dzp",2.10380000000074,NA,NA,"25_5_2024_9_29_17",NA,"CuePresentation",1387259,"0.0-592.0","make",32,20,2,"TRUE",2,NA,NA,"./images/NoneContext.jpg","None","center","None","lowSimList","bonsai","make",NA,NA,NA,12,1,"male",40,FALSE,FALSE,TRUE,TRUE,"0_NoneLowSim","Correct"
"26bnxj1xutj1dzp",1.74430000000075,NA,NA,"25_5_2024_9_29_17",NA,"CuePresentation",1391972,"0.0-596.0","kneepad",32,20,3,"TRUE",2,NA,NA,"./images/NoneContext.jpg","None","center","None","lowSimList","mobile","kneepad",NA,NA,NA,20,1,"male",40,FALSE,FALSE,TRUE,TRUE,"0_NoneLowSim","Correct"
"26bnxj1xutj1dzp",1.7075,NA,NA,"25_5_2024_9_29_17",NA,"CuePresentation",1397699,"0.0-600.0","road",32,20,4,"TRUE",2,NA,NA,"./images/NoneContext.jpg","None","center","None","lowSimList","hair","road",NA,NA,NA,14,1,"male",40,FALSE,FALSE,TRUE,TRUE,"0_NoneLowSim","Correct"
"26bnxj1xutj1dzp",1.99639999999851,NA,NA,"25_5_2024_9_29_17",NA,"CuePresentation",1402755,"0.0-604.0","split",32,20,5,"TRUE",2,NA,NA,"./images/NoneContext.jpg","None","center","None","lowSimList","fossil","split",NA,NA,NA,17,1,"male",40,FALSE,FALSE,TRUE,TRUE,"0_NoneLowSim","Correct"
"26bnxj1xutj1dzp",7.51910000000149,NA,NA,"25_5_2024_9_29_17",NA,"CuePresentation",1415040,"0.0-608.0","0",32,20,6,"FALSE",2,NA,NA,"./images/NoneContext.jpg","None","center","None","lowSimList","spot","movie",NA,NA,NA,13,0,"male",40,FALSE,FALSE,TRUE,TRUE,"0_NoneLowSim","Omission"
"26bnxj1xutj1dzp",8.15189999999851,NA,NA,"25_5_2024_9_29_17",NA,"CuePresentation",1426251,"0.0-612.0","0",32,20,7,"FALSE",2,NA,NA,"./images/NoneContext.jpg","None","center","None","lowSimList","alcohol","disk",NA,NA,NA,18,0,"male",40,FALSE,FALSE,TRUE,TRUE,"0_NoneLowSim","Omission"
"26bnxj1xutj1dzp",3.71920000000298,NA,NA,"25_5_2024_9_29_17",NA,"CuePresentation",1432891,"0.0-616.0","suit",32,20,8,"TRUE",2,NA,NA,"./images/NoneContext.jpg","None","center","None","lowSimList","mullet","suit",NA,NA,NA,7,1,"male",40,FALSE,FALSE,TRUE,TRUE,"0_NoneLowSim","Correct"
"26bnxj1xutj1dzp",3.73290000000223,NA,NA,"25_5_2024_9_29_17",NA,"CuePresentation",1439915,"0.0-620.0","oven",32,20,9,"TRUE",2,NA,NA,"./images/NoneContext.jpg","None","center","None","lowSimList","list","oven",NA,NA,NA,10,1,"male",40,FALSE,FALSE,TRUE,TRUE,"0_NoneLowSim","Correct"
"26bnxj1xutj1dzp",2.48880000000075,NA,NA,"25_5_2024_9_29_17",NA,"CuePresentation",1446103,"0.0-624.0","diamond",32,20,10,"TRUE",2,NA,NA,"./images/NoneContext.jpg","None","center","None","lowSimList","purse","diamond",NA,NA,NA,4,1,"male",40,FALSE,FALSE,TRUE,TRUE,"0_NoneLowSim","Correct"
"26bnxj1xutj1dzp",4.58660000000149,NA,NA,"25_5_2024_9_29_17",NA,"CuePresentation",1454534,"0.0-628.0","ladder",32,20,11,"TRUE",2,NA,NA,"./images/NoneContext.jpg","None","center","None","lowSimList","player","ladder",NA,NA,NA,19,1,"male",40,FALSE,FALSE,TRUE,TRUE,"0_NoneLowSim","Correct"
"26bnxj1xutj1dzp",1.39629999999702,NA,NA,"25_5_2024_9_29_17",NA,"CuePresentation",1459641,"0.0-632.0","plan",32,20,12,"TRUE",2,NA,NA,"./images/NoneContext.jpg","None","center","None","lowSimList","paper","plan",NA,NA,NA,11,1,"male",40,FALSE,FALSE,TRUE,TRUE,"0_NoneLowSim","Correct"
"26bnxj1xutj1dzp",8.1935,NA,NA,"25_5_2024_9_29_17",NA,"CuePresentation",1471334,"0.0-636.0","0",32,20,13,"FALSE",2,NA,NA,"./images/NoneContext.jpg","None","center","None","lowSimList","month","profit",NA,NA,NA,9,0,"male",40,FALSE,FALSE,TRUE,TRUE,"0_NoneLowSim","Omission"
